Picture,difficulty,depth,side,elevation,correctAns,opacity,trials_2.thisRepN,trials_2.thisTrialN,trials_2.thisN,trials_2.thisIndex,trials.thisRepN,trials.thisTrialN,trials.thisN,trials.thisIndex,key_resp.keys,key_resp.corr,key_resp.rt,participant,date,expName,psychopyVersion,frameRate,
LDD2_Pics/FL_34U.jpg,34,far,left,up,down,1,0,0,0,0,0,0,0,27,down,1,1.7022458999417722,01,2023-10-30_14h36.57.950,LDD2,2022.2.4,59.94995376043702,
LDD2_Pics/FL_34D.jpg,34,far,left,down,up,1,0,0,0,0,0,1,1,33,up,1,3.5805790999438614,01,2023-10-30_14h36.57.950,LDD2,2022.2.4,59.94995376043702,
LDD2_Pics/NL_38U.jpg,38,near,left,up,down,1,0,0,0,0,0,2,2,4,down,1,1.279473700094968,01,2023-10-30_14h36.57.950,LDD2,2022.2.4,59.94995376043702,
LDD2_Pics/NR_22U.jpg,22,near,right,up,up,1,0,0,0,0,0,3,3,13,up,1,1.4478210001252592,01,2023-10-30_14h36.57.950,LDD2,2022.2.4,59.94995376043702,
LDD2_Pics/FR_22D.jpg,22,far,right,down,down,1,0,0,0,0,0,4,4,43,down,1,1.1055475999601185,01,2023-10-30_14h36.57.950,LDD2,2022.2.4,59.94995376043702,
LDD2_Pics/NL_42D.jpg,42,near,left,down,up,1,0,0,0,0,0,5,5,11,up,1,1.481393599882722,01,2023-10-30_14h36.57.950,LDD2,2022.2.4,59.94995376043702,
LDD2_Pics/NR_38D.jpg,38,near,right,down,up,1,0,0,0,0,0,6,6,22,up,1,1.921650500036776,01,2023-10-30_14h36.57.950,LDD2,2022.2.4,59.94995376043702,
LDD2_Pics/FR_42D.jpg,42,far,right,down,up,1,0,0,0,0,0,7,7,47,up,1,1.2230247000698,01,2023-10-30_14h36.57.950,LDD2,2022.2.4,59.94995376043702,
LDD2_Pics/NL_26U.jpg,26,near,left,up,up,1,0,0,0,0,0,8,8,2,up,1,1.1859709999989718,01,2023-10-30_14h36.57.950,LDD2,2022.2.4,59.94995376043702,
LDD2_Pics/FR_42U.jpg,42,far,right,up,down,1,0,0,0,0,0,9,9,41,down,1,0.9663718000520021,01,2023-10-30_14h36.57.950,LDD2,2022.2.4,59.94995376043702,
LDD2_Pics/FR_18U.jpg,18,far,right,up,up,1,0,0,0,0,0,10,10,36,up,1,0.995393400080502,01,2023-10-30_14h36.57.950,LDD2,2022.2.4,59.94995376043702,
LDD2_Pics/FL_38D.jpg,38,far,left,down,up,1,0,0,0,0,0,11,11,34,up,1,1.3756136000156403,01,2023-10-30_14h36.57.950,LDD2,2022.2.4,59.94995376043702,
LDD2_Pics/NR_42U.jpg,42,near,right,up,down,1,0,0,0,0,0,12,12,17,down,1,0.8359381998889148,01,2023-10-30_14h36.57.950,LDD2,2022.2.4,59.94995376043702,
LDD2_Pics/NL_22U.jpg,22,near,left,up,up,1,0,0,0,0,0,13,13,1,up,1,1.0536663997918367,01,2023-10-30_14h36.57.950,LDD2,2022.2.4,59.94995376043702,
LDD2_Pics/NL_26D.jpg,26,near,left,down,down,1,0,0,0,0,0,14,14,8,down,1,0.8471789001487195,01,2023-10-30_14h36.57.950,LDD2,2022.2.4,59.94995376043702,
LDD2_Pics/FL_42U.jpg,42,far,left,up,down,1,0,0,0,0,0,15,15,29,down,1,0.7456065998412669,01,2023-10-30_14h36.57.950,LDD2,2022.2.4,59.94995376043702,
LDD2_Pics/NL_22D.jpg,22,near,left,down,down,1,0,0,0,0,0,16,16,7,down,1,0.608105800114572,01,2023-10-30_14h36.57.950,LDD2,2022.2.4,59.94995376043702,
LDD2_Pics/FL_18D.jpg,18,far,left,down,down,1,0,0,0,0,0,17,17,30,down,1,0.547609900124371,01,2023-10-30_14h36.57.950,LDD2,2022.2.4,59.94995376043702,
LDD2_Pics/FL_18U.jpg,18,far,left,up,up,1,0,0,0,0,0,18,18,24,up,1,0.7856850000098348,01,2023-10-30_14h36.57.950,LDD2,2022.2.4,59.94995376043702,
LDD2_Pics/NR_42D.jpg,42,near,right,down,up,1,0,0,0,0,0,19,19,23,up,1,1.2138314000330865,01,2023-10-30_14h36.57.950,LDD2,2022.2.4,59.94995376043702,
LDD2_Pics/NR_26D.jpg,26,near,right,down,down,1,0,0,0,0,0,20,20,20,down,1,1.1536463000811636,01,2023-10-30_14h36.57.950,LDD2,2022.2.4,59.94995376043702,
LDD2_Pics/NL_38D.jpg,38,near,left,down,up,1,0,0,0,0,0,21,21,10,up,1,1.295141499955207,01,2023-10-30_14h36.57.950,LDD2,2022.2.4,59.94995376043702,
LDD2_Pics/FR_26U.jpg,26,far,right,up,up,1,0,0,0,0,0,22,22,38,up,1,1.7908694001380354,01,2023-10-30_14h36.57.950,LDD2,2022.2.4,59.94995376043702,
LDD2_Pics/NR_22D.jpg,22,near,right,down,down,1,0,0,0,0,0,23,23,19,down,1,0.803042900050059,01,2023-10-30_14h36.57.950,LDD2,2022.2.4,59.94995376043702,
LDD2_Pics/NL_34U.jpg,34,near,left,up,down,1,0,0,0,0,0,24,24,3,down,1,1.4610979999415576,01,2023-10-30_14h36.57.950,LDD2,2022.2.4,59.94995376043702,
LDD2_Pics/FL_26U.jpg,26,far,left,up,up,1,0,0,0,0,0,25,25,26,up,1,1.1425412001553923,01,2023-10-30_14h36.57.950,LDD2,2022.2.4,59.94995376043702,
LDD2_Pics/NL_18U.jpg,18,near,left,up,up,1,0,0,0,0,0,26,26,0,up,1,0.7798385000787675,01,2023-10-30_14h36.57.950,LDD2,2022.2.4,59.94995376043702,
LDD2_Pics/NR_34U.jpg,34,near,right,up,down,1,0,0,0,0,0,27,27,15,down,1,1.1781629999168217,01,2023-10-30_14h36.57.950,LDD2,2022.2.4,59.94995376043702,
LDD2_Pics/NR_26U.jpg,26,near,right,up,up,1,0,0,0,0,0,28,28,14,up,1,1.4777170000597835,01,2023-10-30_14h36.57.950,LDD2,2022.2.4,59.94995376043702,
LDD2_Pics/FR_38U.jpg,38,far,right,up,down,1,0,0,0,0,0,29,29,40,down,1,1.206945599988103,01,2023-10-30_14h36.57.950,LDD2,2022.2.4,59.94995376043702,
LDD2_Pics/FL_42D.jpg,42,far,left,down,up,1,0,0,0,0,0,30,30,35,up,1,1.0732300002127886,01,2023-10-30_14h36.57.950,LDD2,2022.2.4,59.94995376043702,
LDD2_Pics/FR_38D.jpg,38,far,right,down,up,1,0,0,0,0,0,31,31,46,up,1,1.0817961001303047,01,2023-10-30_14h36.57.950,LDD2,2022.2.4,59.94995376043702,
LDD2_Pics/FR_34U.jpg,34,far,right,up,down,1,0,0,0,0,0,32,32,39,down,1,1.1147094999905676,01,2023-10-30_14h36.57.950,LDD2,2022.2.4,59.94995376043702,
LDD2_Pics/NL_42U.jpg,42,near,left,up,down,1,0,0,0,0,0,33,33,5,down,1,0.8742753001861274,01,2023-10-30_14h36.57.950,LDD2,2022.2.4,59.94995376043702,
LDD2_Pics/FR_34D.jpg,34,far,right,down,up,1,0,0,0,0,0,34,34,45,up,1,1.2270229998975992,01,2023-10-30_14h36.57.950,LDD2,2022.2.4,59.94995376043702,
LDD2_Pics/FL_22U.jpg,22,far,left,up,up,1,0,0,0,0,0,35,35,25,up,1,0.7097590998746455,01,2023-10-30_14h36.57.950,LDD2,2022.2.4,59.94995376043702,
LDD2_Pics/FR_22U.jpg,22,far,right,up,up,1,0,0,0,0,0,36,36,37,up,1,0.9018860999494791,01,2023-10-30_14h36.57.950,LDD2,2022.2.4,59.94995376043702,
LDD2_Pics/NL_34D.jpg,34,near,left,down,up,1,0,0,0,0,0,37,37,9,up,1,1.268742199987173,01,2023-10-30_14h36.57.950,LDD2,2022.2.4,59.94995376043702,
LDD2_Pics/NR_34D.jpg,34,near,right,down,up,1,0,0,0,0,0,38,38,21,up,1,1.9968679000157863,01,2023-10-30_14h36.57.950,LDD2,2022.2.4,59.94995376043702,
LDD2_Pics/FL_22D.jpg,22,far,left,down,down,1,0,0,0,0,0,39,39,31,down,1,0.6402904000133276,01,2023-10-30_14h36.57.950,LDD2,2022.2.4,59.94995376043702,
LDD2_Pics/NR_38U.jpg,38,near,right,up,down,1,0,0,0,0,0,40,40,16,down,1,0.7705119999591261,01,2023-10-30_14h36.57.950,LDD2,2022.2.4,59.94995376043702,
LDD2_Pics/NL_18D.jpg,18,near,left,down,down,1,0,0,0,0,0,41,41,6,down,1,0.7277398998849094,01,2023-10-30_14h36.57.950,LDD2,2022.2.4,59.94995376043702,
LDD2_Pics/FR_26D.jpg,26,far,right,down,down,1,0,0,0,0,0,42,42,44,down,1,0.8625113000161946,01,2023-10-30_14h36.57.950,LDD2,2022.2.4,59.94995376043702,
LDD2_Pics/NR_18U.jpg,18,near,right,up,up,1,0,0,0,0,0,43,43,12,up,1,1.1604124000295997,01,2023-10-30_14h36.57.950,LDD2,2022.2.4,59.94995376043702,
LDD2_Pics/NR_18D.jpg,18,near,right,down,down,1,0,0,0,0,0,44,44,18,down,1,0.7811843000818044,01,2023-10-30_14h36.57.950,LDD2,2022.2.4,59.94995376043702,
LDD2_Pics/FL_38U.jpg,38,far,left,up,down,1,0,0,0,0,0,45,45,28,down,1,0.826674000127241,01,2023-10-30_14h36.57.950,LDD2,2022.2.4,59.94995376043702,
LDD2_Pics/FR_18D.jpg,18,far,right,down,down,1,0,0,0,0,0,46,46,42,down,1,0.7507285999599844,01,2023-10-30_14h36.57.950,LDD2,2022.2.4,59.94995376043702,
LDD2_Pics/FL_26D.jpg,26,far,left,down,down,1,0,0,0,0,0,47,47,32,down,1,0.7300742999650538,01,2023-10-30_14h36.57.950,LDD2,2022.2.4,59.94995376043702,
LDD2_Pics/FL_42U.jpg,42,far,left,up,down,1,1,0,1,0,0,0,0,29,down,1,0.7922511999495327,01,2023-10-30_14h36.57.950,LDD2,2022.2.4,59.94995376043702,
LDD2_Pics/FR_18U.jpg,18,far,right,up,up,1,1,0,1,0,0,1,1,36,up,1,0.9486306000035256,01,2023-10-30_14h36.57.950,LDD2,2022.2.4,59.94995376043702,
LDD2_Pics/FL_26U.jpg,26,far,left,up,up,1,1,0,1,0,0,2,2,26,up,1,0.7071121998596936,01,2023-10-30_14h36.57.950,LDD2,2022.2.4,59.94995376043702,
LDD2_Pics/FL_22U.jpg,22,far,left,up,up,1,1,0,1,0,0,3,3,25,up,1,0.5784150999970734,01,2023-10-30_14h36.57.950,LDD2,2022.2.4,59.94995376043702,
LDD2_Pics/FL_38D.jpg,38,far,left,down,up,1,1,0,1,0,0,4,4,34,up,1,0.5833988999947906,01,2023-10-30_14h36.57.950,LDD2,2022.2.4,59.94995376043702,
LDD2_Pics/FR_38D.jpg,38,far,right,down,up,1,1,0,1,0,0,5,5,46,up,1,0.9091154998168349,01,2023-10-30_14h36.57.950,LDD2,2022.2.4,59.94995376043702,
LDD2_Pics/FR_26D.jpg,26,far,right,down,down,1,1,0,1,0,0,6,6,44,down,1,0.7560937001835555,01,2023-10-30_14h36.57.950,LDD2,2022.2.4,59.94995376043702,
LDD2_Pics/NR_18U.jpg,18,near,right,up,up,1,1,0,1,0,0,7,7,12,up,1,0.8977648001164198,01,2023-10-30_14h36.57.950,LDD2,2022.2.4,59.94995376043702,
LDD2_Pics/NR_42D.jpg,42,near,right,down,up,1,1,0,1,0,0,8,8,23,up,1,0.818344899918884,01,2023-10-30_14h36.57.950,LDD2,2022.2.4,59.94995376043702,
LDD2_Pics/FL_18U.jpg,18,far,left,up,up,1,1,0,1,0,0,9,9,24,up,1,0.644463799893856,01,2023-10-30_14h36.57.950,LDD2,2022.2.4,59.94995376043702,
LDD2_Pics/NR_42U.jpg,42,near,right,up,down,1,1,0,1,0,0,10,10,17,down,1,0.7831834999378771,01,2023-10-30_14h36.57.950,LDD2,2022.2.4,59.94995376043702,
LDD2_Pics/NL_18D.jpg,18,near,left,down,down,1,1,0,1,0,0,11,11,6,down,1,0.6282491001766175,01,2023-10-30_14h36.57.950,LDD2,2022.2.4,59.94995376043702,
LDD2_Pics/FR_34U.jpg,34,far,right,up,down,1,1,0,1,0,0,12,12,39,down,1,1.1838058000430465,01,2023-10-30_14h36.57.950,LDD2,2022.2.4,59.94995376043702,
LDD2_Pics/FR_22D.jpg,22,far,right,down,down,1,1,0,1,0,0,13,13,43,down,1,0.5795342000201344,01,2023-10-30_14h36.57.950,LDD2,2022.2.4,59.94995376043702,
LDD2_Pics/FL_34U.jpg,34,far,left,up,down,1,1,0,1,0,0,14,14,27,down,1,1.112740800017491,01,2023-10-30_14h36.57.950,LDD2,2022.2.4,59.94995376043702,
LDD2_Pics/NL_38D.jpg,38,near,left,down,up,1,1,0,1,0,0,15,15,10,up,1,0.7846691999584436,01,2023-10-30_14h36.57.950,LDD2,2022.2.4,59.94995376043702,
LDD2_Pics/FR_34D.jpg,34,far,right,down,up,1,1,0,1,0,0,16,16,45,up,1,0.8842221999075264,01,2023-10-30_14h36.57.950,LDD2,2022.2.4,59.94995376043702,
LDD2_Pics/FR_42U.jpg,42,far,right,up,down,1,1,0,1,0,0,17,17,41,down,1,0.6224026000127196,01,2023-10-30_14h36.57.950,LDD2,2022.2.4,59.94995376043702,
LDD2_Pics/FL_22D.jpg,22,far,left,down,down,1,1,0,1,0,0,18,18,31,down,1,0.7531045000068843,01,2023-10-30_14h36.57.950,LDD2,2022.2.4,59.94995376043702,
LDD2_Pics/FL_34D.jpg,34,far,left,down,up,1,1,0,1,0,0,19,19,33,up,1,0.8140977001748979,01,2023-10-30_14h36.57.950,LDD2,2022.2.4,59.94995376043702,
LDD2_Pics/NR_38D.jpg,38,near,right,down,up,1,1,0,1,0,0,20,20,22,up,1,0.889776699943468,01,2023-10-30_14h36.57.950,LDD2,2022.2.4,59.94995376043702,
LDD2_Pics/FL_18D.jpg,18,far,left,down,down,1,1,0,1,0,0,21,21,30,down,1,0.6816950999200344,01,2023-10-30_14h36.57.950,LDD2,2022.2.4,59.94995376043702,
LDD2_Pics/FL_42D.jpg,42,far,left,down,up,1,1,0,1,0,0,22,22,35,up,1,0.7704630999360234,01,2023-10-30_14h36.57.950,LDD2,2022.2.4,59.94995376043702,
LDD2_Pics/NR_38U.jpg,38,near,right,up,down,1,1,0,1,0,0,23,23,16,down,1,0.8158960998989642,01,2023-10-30_14h36.57.950,LDD2,2022.2.4,59.94995376043702,
LDD2_Pics/NL_26D.jpg,26,near,left,down,down,1,1,0,1,0,0,24,24,8,down,1,0.6685164000373334,01,2023-10-30_14h36.57.950,LDD2,2022.2.4,59.94995376043702,
LDD2_Pics/NR_26U.jpg,26,near,right,up,up,1,1,0,1,0,0,25,25,14,up,1,1.4440957000479102,01,2023-10-30_14h36.57.950,LDD2,2022.2.4,59.94995376043702,
LDD2_Pics/NL_22D.jpg,22,near,left,down,down,1,1,0,1,0,0,26,26,7,down,1,0.6537551998626441,01,2023-10-30_14h36.57.950,LDD2,2022.2.4,59.94995376043702,
LDD2_Pics/FR_26U.jpg,26,far,right,up,up,1,1,0,1,0,0,27,27,38,up,1,0.6792350998148322,01,2023-10-30_14h36.57.950,LDD2,2022.2.4,59.94995376043702,
LDD2_Pics/NR_22U.jpg,22,near,right,up,up,1,1,0,1,0,0,28,28,13,up,1,0.8084375001490116,01,2023-10-30_14h36.57.950,LDD2,2022.2.4,59.94995376043702,
LDD2_Pics/NL_18U.jpg,18,near,left,up,up,1,1,0,1,0,0,29,29,0,up,1,0.6767756000626832,01,2023-10-30_14h36.57.950,LDD2,2022.2.4,59.94995376043702,
LDD2_Pics/FR_42D.jpg,42,far,right,down,up,1,1,0,1,0,0,30,30,47,up,1,0.6527962000109255,01,2023-10-30_14h36.57.950,LDD2,2022.2.4,59.94995376043702,
LDD2_Pics/NR_26D.jpg,26,near,right,down,down,1,1,0,1,0,0,31,31,20,down,1,0.8548163000959903,01,2023-10-30_14h36.57.950,LDD2,2022.2.4,59.94995376043702,
LDD2_Pics/FR_18D.jpg,18,far,right,down,down,1,1,0,1,0,0,32,32,42,down,1,0.5919060001615435,01,2023-10-30_14h36.57.950,LDD2,2022.2.4,59.94995376043702,
LDD2_Pics/NL_34U.jpg,34,near,left,up,down,1,1,0,1,0,0,33,33,3,down,1,0.8608709000982344,01,2023-10-30_14h36.57.950,LDD2,2022.2.4,59.94995376043702,
LDD2_Pics/NL_26U.jpg,26,near,left,up,up,1,1,0,1,0,0,34,34,2,down,0,0.6707904001232237,01,2023-10-30_14h36.57.950,LDD2,2022.2.4,59.94995376043702,
LDD2_Pics/NL_38U.jpg,38,near,left,up,down,1,1,0,1,0,0,35,35,4,down,1,0.7274407998193055,01,2023-10-30_14h36.57.950,LDD2,2022.2.4,59.94995376043702,
LDD2_Pics/NR_18D.jpg,18,near,right,down,down,1,1,0,1,0,0,36,36,18,down,1,0.6465396999847144,01,2023-10-30_14h36.57.950,LDD2,2022.2.4,59.94995376043702,
LDD2_Pics/FR_22U.jpg,22,far,right,up,up,1,1,0,1,0,0,37,37,37,up,1,1.168281199876219,01,2023-10-30_14h36.57.950,LDD2,2022.2.4,59.94995376043702,
LDD2_Pics/NL_42D.jpg,42,near,left,down,up,1,1,0,1,0,0,38,38,11,up,1,0.7735144998878241,01,2023-10-30_14h36.57.950,LDD2,2022.2.4,59.94995376043702,
LDD2_Pics/NR_34D.jpg,34,near,right,down,up,1,1,0,1,0,0,39,39,21,up,1,1.1386017999611795,01,2023-10-30_14h36.57.950,LDD2,2022.2.4,59.94995376043702,
LDD2_Pics/NL_42U.jpg,42,near,left,up,down,1,1,0,1,0,0,40,40,5,down,1,0.6804593000560999,01,2023-10-30_14h36.57.950,LDD2,2022.2.4,59.94995376043702,
LDD2_Pics/NR_22D.jpg,22,near,right,down,down,1,1,0,1,0,0,41,41,19,down,1,0.5935283999424428,01,2023-10-30_14h36.57.950,LDD2,2022.2.4,59.94995376043702,
LDD2_Pics/FL_38U.jpg,38,far,left,up,down,1,1,0,1,0,0,42,42,28,down,1,0.5974830000195652,01,2023-10-30_14h36.57.950,LDD2,2022.2.4,59.94995376043702,
LDD2_Pics/NR_34U.jpg,34,near,right,up,down,1,1,0,1,0,0,43,43,15,down,1,0.7305062999948859,01,2023-10-30_14h36.57.950,LDD2,2022.2.4,59.94995376043702,
LDD2_Pics/FR_38U.jpg,38,far,right,up,down,1,1,0,1,0,0,44,44,40,down,1,0.5699729998596013,01,2023-10-30_14h36.57.950,LDD2,2022.2.4,59.94995376043702,
LDD2_Pics/NL_22U.jpg,22,near,left,up,up,1,1,0,1,0,0,45,45,1,up,1,0.9195326000917703,01,2023-10-30_14h36.57.950,LDD2,2022.2.4,59.94995376043702,
LDD2_Pics/NL_34D.jpg,34,near,left,down,up,1,1,0,1,0,0,46,46,9,up,1,0.7409236000385135,01,2023-10-30_14h36.57.950,LDD2,2022.2.4,59.94995376043702,
LDD2_Pics/FL_26D.jpg,26,far,left,down,down,1,1,0,1,0,0,47,47,32,down,1,0.8355398001149297,01,2023-10-30_14h36.57.950,LDD2,2022.2.4,59.94995376043702,
LDD2_Pics/NL_34D.jpg,34,near,left,down,up,1,2,0,2,0,0,0,0,9,up,1,1.1578267998993397,01,2023-10-30_14h36.57.950,LDD2,2022.2.4,59.94995376043702,
LDD2_Pics/NR_22D.jpg,22,near,right,down,down,1,2,0,2,0,0,1,1,19,down,1,0.5950188999995589,01,2023-10-30_14h36.57.950,LDD2,2022.2.4,59.94995376043702,
LDD2_Pics/NL_34U.jpg,34,near,left,up,down,1,2,0,2,0,0,2,2,3,down,1,0.67946120002307,01,2023-10-30_14h36.57.950,LDD2,2022.2.4,59.94995376043702,
LDD2_Pics/FL_34U.jpg,34,far,left,up,down,1,2,0,2,0,0,3,3,27,down,1,0.6248208999168128,01,2023-10-30_14h36.57.950,LDD2,2022.2.4,59.94995376043702,
LDD2_Pics/NL_22D.jpg,22,near,left,down,down,1,2,0,2,0,0,4,4,7,down,1,0.5314853999298066,01,2023-10-30_14h36.57.950,LDD2,2022.2.4,59.94995376043702,
LDD2_Pics/FR_42D.jpg,42,far,right,down,up,1,2,0,2,0,0,5,5,47,up,1,0.7871924999635667,01,2023-10-30_14h36.57.950,LDD2,2022.2.4,59.94995376043702,
LDD2_Pics/FL_26U.jpg,26,far,left,up,up,1,2,0,2,0,0,6,6,26,up,1,0.7266723001375794,01,2023-10-30_14h36.57.950,LDD2,2022.2.4,59.94995376043702,
LDD2_Pics/NR_18U.jpg,18,near,right,up,up,1,2,0,2,0,0,7,7,12,up,1,0.8615923000033945,01,2023-10-30_14h36.57.950,LDD2,2022.2.4,59.94995376043702,
LDD2_Pics/NR_22U.jpg,22,near,right,up,up,1,2,0,2,0,0,8,8,13,up,1,1.1118552000261843,01,2023-10-30_14h36.57.950,LDD2,2022.2.4,59.94995376043702,
LDD2_Pics/FL_22D.jpg,22,far,left,down,down,1,2,0,2,0,0,9,9,31,down,1,0.710840200074017,01,2023-10-30_14h36.57.950,LDD2,2022.2.4,59.94995376043702,
LDD2_Pics/NL_42D.jpg,42,near,left,down,up,1,2,0,2,0,0,10,10,11,up,1,0.813974300166592,01,2023-10-30_14h36.57.950,LDD2,2022.2.4,59.94995376043702,
LDD2_Pics/FR_18U.jpg,18,far,right,up,up,1,2,0,2,0,0,11,11,36,up,1,0.6573417000472546,01,2023-10-30_14h36.57.950,LDD2,2022.2.4,59.94995376043702,
LDD2_Pics/FL_38D.jpg,38,far,left,down,up,1,2,0,2,0,0,12,12,34,up,1,0.6599010999780148,01,2023-10-30_14h36.57.950,LDD2,2022.2.4,59.94995376043702,
LDD2_Pics/NL_38U.jpg,38,near,left,up,down,1,2,0,2,0,0,13,13,4,down,1,0.6367379000876099,01,2023-10-30_14h36.57.950,LDD2,2022.2.4,59.94995376043702,
LDD2_Pics/NR_26D.jpg,26,near,right,down,down,1,2,0,2,0,0,14,14,20,down,1,0.6712876001838595,01,2023-10-30_14h36.57.950,LDD2,2022.2.4,59.94995376043702,
LDD2_Pics/FR_26D.jpg,26,far,right,down,down,1,2,0,2,0,0,15,15,44,down,1,0.688164500053972,01,2023-10-30_14h36.57.950,LDD2,2022.2.4,59.94995376043702,
LDD2_Pics/FL_26D.jpg,26,far,left,down,down,1,2,0,2,0,0,16,16,32,down,1,0.7369239998515695,01,2023-10-30_14h36.57.950,LDD2,2022.2.4,59.94995376043702,
LDD2_Pics/NL_38D.jpg,38,near,left,down,up,1,2,0,2,0,0,17,17,10,up,1,0.823325099889189,01,2023-10-30_14h36.57.950,LDD2,2022.2.4,59.94995376043702,
LDD2_Pics/FL_34D.jpg,34,far,left,down,up,1,2,0,2,0,0,18,18,33,up,1,0.39395550009794533,01,2023-10-30_14h36.57.950,LDD2,2022.2.4,59.94995376043702,
LDD2_Pics/FL_42U.jpg,42,far,left,up,down,1,2,0,2,0,0,19,19,29,down,1,0.583414499880746,01,2023-10-30_14h36.57.950,LDD2,2022.2.4,59.94995376043702,
LDD2_Pics/FR_34U.jpg,34,far,right,up,down,1,2,0,2,0,0,20,20,39,down,1,0.9724978001322597,01,2023-10-30_14h36.57.950,LDD2,2022.2.4,59.94995376043702,
LDD2_Pics/NL_26D.jpg,26,near,left,down,down,1,2,0,2,0,0,21,21,8,down,1,0.6890022999141365,01,2023-10-30_14h36.57.950,LDD2,2022.2.4,59.94995376043702,
LDD2_Pics/FR_38D.jpg,38,far,right,down,up,1,2,0,2,0,0,22,22,46,up,1,0.9135457999072969,01,2023-10-30_14h36.57.950,LDD2,2022.2.4,59.94995376043702,
LDD2_Pics/NL_22U.jpg,22,near,left,up,up,1,2,0,2,0,0,23,23,1,up,1,0.7519815000705421,01,2023-10-30_14h36.57.950,LDD2,2022.2.4,59.94995376043702,
LDD2_Pics/FR_26U.jpg,26,far,right,up,up,1,2,0,2,0,0,24,24,38,up,1,0.6862735999748111,01,2023-10-30_14h36.57.950,LDD2,2022.2.4,59.94995376043702,
LDD2_Pics/NR_42D.jpg,42,near,right,down,up,1,2,0,2,0,0,25,25,23,up,1,0.774565199855715,01,2023-10-30_14h36.57.950,LDD2,2022.2.4,59.94995376043702,
LDD2_Pics/NR_34U.jpg,34,near,right,up,down,1,2,0,2,0,0,26,26,15,down,1,0.8671518999617547,01,2023-10-30_14h36.57.950,LDD2,2022.2.4,59.94995376043702,
LDD2_Pics/FL_38U.jpg,38,far,left,up,down,1,2,0,2,0,0,27,27,28,down,1,0.6446964000351727,01,2023-10-30_14h36.57.950,LDD2,2022.2.4,59.94995376043702,
LDD2_Pics/FR_38U.jpg,38,far,right,up,down,1,2,0,2,0,0,28,28,40,down,1,0.6155022999737412,01,2023-10-30_14h36.57.950,LDD2,2022.2.4,59.94995376043702,
LDD2_Pics/NL_18U.jpg,18,near,left,up,up,1,2,0,2,0,0,29,29,0,up,1,0.978869799990207,01,2023-10-30_14h36.57.950,LDD2,2022.2.4,59.94995376043702,
LDD2_Pics/FR_34D.jpg,34,far,right,down,up,1,2,0,2,0,0,30,30,45,up,1,0.9679756998084486,01,2023-10-30_14h36.57.950,LDD2,2022.2.4,59.94995376043702,
LDD2_Pics/NL_42U.jpg,42,near,left,up,down,1,2,0,2,0,0,31,31,5,down,1,0.6202249999623746,01,2023-10-30_14h36.57.950,LDD2,2022.2.4,59.94995376043702,
LDD2_Pics/NR_42U.jpg,42,near,right,up,down,1,2,0,2,0,0,32,32,17,down,1,0.5913360000122339,01,2023-10-30_14h36.57.950,LDD2,2022.2.4,59.94995376043702,
LDD2_Pics/FL_22U.jpg,22,far,left,up,up,1,2,0,2,0,0,33,33,25,up,1,0.844261399935931,01,2023-10-30_14h36.57.950,LDD2,2022.2.4,59.94995376043702,
LDD2_Pics/FR_18D.jpg,18,far,right,down,down,1,2,0,2,0,0,34,34,42,down,1,0.5828158999793231,01,2023-10-30_14h36.57.950,LDD2,2022.2.4,59.94995376043702,
LDD2_Pics/NR_38U.jpg,38,near,right,up,down,1,2,0,2,0,0,35,35,16,down,1,0.5872355999890715,01,2023-10-30_14h36.57.950,LDD2,2022.2.4,59.94995376043702,
LDD2_Pics/FL_42D.jpg,42,far,left,down,up,1,2,0,2,0,0,36,36,35,up,1,0.7116640000604093,01,2023-10-30_14h36.57.950,LDD2,2022.2.4,59.94995376043702,
LDD2_Pics/NR_18D.jpg,18,near,right,down,down,1,2,0,2,0,0,37,37,18,down,1,0.5514674000442028,01,2023-10-30_14h36.57.950,LDD2,2022.2.4,59.94995376043702,
LDD2_Pics/NR_34D.jpg,34,near,right,down,up,1,2,0,2,0,0,38,38,21,down,0,0.49320050003007054,01,2023-10-30_14h36.57.950,LDD2,2022.2.4,59.94995376043702,
LDD2_Pics/FR_22U.jpg,22,far,right,up,up,1,2,0,2,0,0,39,39,37,up,1,1.294296900043264,01,2023-10-30_14h36.57.950,LDD2,2022.2.4,59.94995376043702,
LDD2_Pics/FR_42U.jpg,42,far,right,up,down,1,2,0,2,0,0,40,40,41,down,1,0.605814800132066,01,2023-10-30_14h36.57.950,LDD2,2022.2.4,59.94995376043702,
LDD2_Pics/NL_26U.jpg,26,near,left,up,up,1,2,0,2,0,0,41,41,2,up,1,1.1858828000258654,01,2023-10-30_14h36.57.950,LDD2,2022.2.4,59.94995376043702,
LDD2_Pics/FL_18U.jpg,18,far,left,up,up,1,2,0,2,0,0,42,42,24,up,1,0.6607099999673665,01,2023-10-30_14h36.57.950,LDD2,2022.2.4,59.94995376043702,
LDD2_Pics/NR_38D.jpg,38,near,right,down,up,1,2,0,2,0,0,43,43,22,up,1,0.7265674001537263,01,2023-10-30_14h36.57.950,LDD2,2022.2.4,59.94995376043702,
LDD2_Pics/NR_26U.jpg,26,near,right,up,up,1,2,0,2,0,0,44,44,14,up,1,1.1823401001747698,01,2023-10-30_14h36.57.950,LDD2,2022.2.4,59.94995376043702,
LDD2_Pics/FL_18D.jpg,18,far,left,down,down,1,2,0,2,0,0,45,45,30,down,1,0.7461266999598593,01,2023-10-30_14h36.57.950,LDD2,2022.2.4,59.94995376043702,
LDD2_Pics/FR_22D.jpg,22,far,right,down,down,1,2,0,2,0,0,46,46,43,down,1,0.6164896998088807,01,2023-10-30_14h36.57.950,LDD2,2022.2.4,59.94995376043702,
LDD2_Pics/NL_18D.jpg,18,near,left,down,down,1,2,0,2,0,0,47,47,6,down,1,0.6126425999682397,01,2023-10-30_14h36.57.950,LDD2,2022.2.4,59.94995376043702,
LDD2_Pics/FL_42D.jpg,42,far,left,down,up,1,3,0,3,0,0,0,0,35,up,1,0.7756527999881655,01,2023-10-30_14h36.57.950,LDD2,2022.2.4,59.94995376043702,
LDD2_Pics/FR_38U.jpg,38,far,right,up,down,1,3,0,3,0,0,1,1,40,down,1,0.5726883998140693,01,2023-10-30_14h36.57.950,LDD2,2022.2.4,59.94995376043702,
LDD2_Pics/NR_22D.jpg,22,near,right,down,down,1,3,0,3,0,0,2,2,19,down,1,0.6180682999547571,01,2023-10-30_14h36.57.950,LDD2,2022.2.4,59.94995376043702,
LDD2_Pics/NR_26U.jpg,26,near,right,up,up,1,3,0,3,0,0,3,3,14,up,1,1.6522433999925852,01,2023-10-30_14h36.57.950,LDD2,2022.2.4,59.94995376043702,
LDD2_Pics/NL_26U.jpg,26,near,left,up,up,1,3,0,3,0,0,4,4,2,up,1,1.4529707999899983,01,2023-10-30_14h36.57.950,LDD2,2022.2.4,59.94995376043702,
LDD2_Pics/NL_34D.jpg,34,near,left,down,up,1,3,0,3,0,0,5,5,9,up,1,1.0548322000540793,01,2023-10-30_14h36.57.950,LDD2,2022.2.4,59.94995376043702,
LDD2_Pics/FL_42U.jpg,42,far,left,up,down,1,3,0,3,0,0,6,6,29,down,1,0.6312233998905867,01,2023-10-30_14h36.57.950,LDD2,2022.2.4,59.94995376043702,
LDD2_Pics/FR_26D.jpg,26,far,right,down,down,1,3,0,3,0,0,7,7,44,down,1,0.5880040000192821,01,2023-10-30_14h36.57.950,LDD2,2022.2.4,59.94995376043702,
LDD2_Pics/NR_34D.jpg,34,near,right,down,up,1,3,0,3,0,0,8,8,21,up,1,1.0157161999959499,01,2023-10-30_14h36.57.950,LDD2,2022.2.4,59.94995376043702,
LDD2_Pics/NR_42U.jpg,42,near,right,up,down,1,3,0,3,0,0,9,9,17,down,1,0.8111040000803769,01,2023-10-30_14h36.57.950,LDD2,2022.2.4,59.94995376043702,
LDD2_Pics/FL_26U.jpg,26,far,left,up,up,1,3,0,3,0,0,10,10,26,up,1,0.8940280000679195,01,2023-10-30_14h36.57.950,LDD2,2022.2.4,59.94995376043702,
LDD2_Pics/NL_18D.jpg,18,near,left,down,down,1,3,0,3,0,0,11,11,6,down,1,0.6545157998334616,01,2023-10-30_14h36.57.950,LDD2,2022.2.4,59.94995376043702,
LDD2_Pics/NL_26D.jpg,26,near,left,down,down,1,3,0,3,0,0,12,12,8,down,1,0.7596436000894755,01,2023-10-30_14h36.57.950,LDD2,2022.2.4,59.94995376043702,
LDD2_Pics/NR_38D.jpg,38,near,right,down,up,1,3,0,3,0,0,13,13,22,up,1,0.9261279001366347,01,2023-10-30_14h36.57.950,LDD2,2022.2.4,59.94995376043702,
LDD2_Pics/NR_42D.jpg,42,near,right,down,up,1,3,0,3,0,0,14,14,23,up,1,0.6600357000716031,01,2023-10-30_14h36.57.950,LDD2,2022.2.4,59.94995376043702,
LDD2_Pics/NL_18U.jpg,18,near,left,up,up,1,3,0,3,0,0,15,15,0,up,1,0.6137455001007766,01,2023-10-30_14h36.57.950,LDD2,2022.2.4,59.94995376043702,
LDD2_Pics/FL_18U.jpg,18,far,left,up,up,1,3,0,3,0,0,16,16,24,up,1,0.5773869999684393,01,2023-10-30_14h36.57.950,LDD2,2022.2.4,59.94995376043702,
LDD2_Pics/NR_34U.jpg,34,near,right,up,down,1,3,0,3,0,0,17,17,15,down,1,0.6787856998853385,01,2023-10-30_14h36.57.950,LDD2,2022.2.4,59.94995376043702,
LDD2_Pics/NL_38U.jpg,38,near,left,up,down,1,3,0,3,0,0,18,18,4,down,1,0.6557718000840396,01,2023-10-30_14h36.57.950,LDD2,2022.2.4,59.94995376043702,
LDD2_Pics/FR_42D.jpg,42,far,right,down,up,1,3,0,3,0,0,19,19,47,up,1,0.7700120999943465,01,2023-10-30_14h36.57.950,LDD2,2022.2.4,59.94995376043702,
LDD2_Pics/NR_18U.jpg,18,near,right,up,up,1,3,0,3,0,0,20,20,12,up,1,0.6864189999178052,01,2023-10-30_14h36.57.950,LDD2,2022.2.4,59.94995376043702,
LDD2_Pics/NL_34U.jpg,34,near,left,up,down,1,3,0,3,0,0,21,21,3,down,1,0.73568269982934,01,2023-10-30_14h36.57.950,LDD2,2022.2.4,59.94995376043702,
LDD2_Pics/FR_18U.jpg,18,far,right,up,up,1,3,0,3,0,0,22,22,36,up,1,0.8301446998957545,01,2023-10-30_14h36.57.950,LDD2,2022.2.4,59.94995376043702,
LDD2_Pics/NL_22U.jpg,22,near,left,up,up,1,3,0,3,0,0,23,23,1,up,1,0.7277997999917716,01,2023-10-30_14h36.57.950,LDD2,2022.2.4,59.94995376043702,
LDD2_Pics/NL_42U.jpg,42,near,left,up,down,1,3,0,3,0,0,24,24,5,down,1,0.6633794999215752,01,2023-10-30_14h36.57.950,LDD2,2022.2.4,59.94995376043702,
LDD2_Pics/FR_26U.jpg,26,far,right,up,up,1,3,0,3,0,0,25,25,38,up,1,1.8731136000715196,01,2023-10-30_14h36.57.950,LDD2,2022.2.4,59.94995376043702,
LDD2_Pics/NL_22D.jpg,22,near,left,down,down,1,3,0,3,0,0,26,26,7,down,1,0.618047800147906,01,2023-10-30_14h36.57.950,LDD2,2022.2.4,59.94995376043702,
LDD2_Pics/FR_42U.jpg,42,far,right,up,down,1,3,0,3,0,0,27,27,41,down,1,0.6682175998575985,01,2023-10-30_14h36.57.950,LDD2,2022.2.4,59.94995376043702,
LDD2_Pics/NR_22U.jpg,22,near,right,up,up,1,3,0,3,0,0,28,28,13,up,1,0.8768253000453115,01,2023-10-30_14h36.57.950,LDD2,2022.2.4,59.94995376043702,
LDD2_Pics/FR_38D.jpg,38,far,right,down,up,1,3,0,3,0,0,29,29,46,up,1,0.7575099999085069,01,2023-10-30_14h36.57.950,LDD2,2022.2.4,59.94995376043702,
LDD2_Pics/FL_34U.jpg,34,far,left,up,down,1,3,0,3,0,0,30,30,27,down,1,0.9404581000562757,01,2023-10-30_14h36.57.950,LDD2,2022.2.4,59.94995376043702,
LDD2_Pics/NR_38U.jpg,38,near,right,up,down,1,3,0,3,0,0,31,31,16,down,1,0.6016436000354588,01,2023-10-30_14h36.57.950,LDD2,2022.2.4,59.94995376043702,
LDD2_Pics/FR_34U.jpg,34,far,right,up,down,1,3,0,3,0,0,32,32,39,down,1,0.573645900003612,01,2023-10-30_14h36.57.950,LDD2,2022.2.4,59.94995376043702,
LDD2_Pics/FL_22U.jpg,22,far,left,up,up,1,3,0,3,0,0,33,33,25,up,1,0.9950652001425624,01,2023-10-30_14h36.57.950,LDD2,2022.2.4,59.94995376043702,
LDD2_Pics/FL_34D.jpg,34,far,left,down,up,1,3,0,3,0,0,34,34,33,down,0,0.6389923000242561,01,2023-10-30_14h36.57.950,LDD2,2022.2.4,59.94995376043702,
LDD2_Pics/FR_34D.jpg,34,far,right,down,up,1,3,0,3,0,0,35,35,45,up,1,1.777785599930212,01,2023-10-30_14h36.57.950,LDD2,2022.2.4,59.94995376043702,
LDD2_Pics/FL_22D.jpg,22,far,left,down,down,1,3,0,3,0,0,36,36,31,down,1,0.6686003000941128,01,2023-10-30_14h36.57.950,LDD2,2022.2.4,59.94995376043702,
LDD2_Pics/FR_18D.jpg,18,far,right,down,down,1,3,0,3,0,0,37,37,42,down,1,0.5652702997904271,01,2023-10-30_14h36.57.950,LDD2,2022.2.4,59.94995376043702,
LDD2_Pics/NL_42D.jpg,42,near,left,down,up,1,3,0,3,0,0,38,38,11,up,1,1.1234471001662314,01,2023-10-30_14h36.57.950,LDD2,2022.2.4,59.94995376043702,
LDD2_Pics/NR_18D.jpg,18,near,right,down,down,1,3,0,3,0,0,39,39,18,down,1,0.5943673998117447,01,2023-10-30_14h36.57.950,LDD2,2022.2.4,59.94995376043702,
LDD2_Pics/FL_26D.jpg,26,far,left,down,down,1,3,0,3,0,0,40,40,32,down,1,1.0879475998226553,01,2023-10-30_14h36.57.950,LDD2,2022.2.4,59.94995376043702,
LDD2_Pics/FL_18D.jpg,18,far,left,down,down,1,3,0,3,0,0,41,41,30,down,1,0.5272399000823498,01,2023-10-30_14h36.57.950,LDD2,2022.2.4,59.94995376043702,
LDD2_Pics/FR_22D.jpg,22,far,right,down,down,1,3,0,3,0,0,42,42,43,down,1,0.6143537000752985,01,2023-10-30_14h36.57.950,LDD2,2022.2.4,59.94995376043702,
LDD2_Pics/FR_22U.jpg,22,far,right,up,up,1,3,0,3,0,0,43,43,37,down,0,0.3541016997769475,01,2023-10-30_14h36.57.950,LDD2,2022.2.4,59.94995376043702,
LDD2_Pics/FL_38U.jpg,38,far,left,up,down,1,3,0,3,0,0,44,44,28,down,1,0.7206387999467552,01,2023-10-30_14h36.57.950,LDD2,2022.2.4,59.94995376043702,
LDD2_Pics/NL_38D.jpg,38,near,left,down,up,1,3,0,3,0,0,45,45,10,up,1,0.8061025000642985,01,2023-10-30_14h36.57.950,LDD2,2022.2.4,59.94995376043702,
LDD2_Pics/FL_38D.jpg,38,far,left,down,up,1,3,0,3,0,0,46,46,34,up,1,0.6656180999707431,01,2023-10-30_14h36.57.950,LDD2,2022.2.4,59.94995376043702,
LDD2_Pics/NR_26D.jpg,26,near,right,down,down,1,3,0,3,0,0,47,47,20,down,1,0.6931578998919576,01,2023-10-30_14h36.57.950,LDD2,2022.2.4,59.94995376043702,
LDD2_Pics/NR_38U.jpg,38,near,right,up,down,1,4,0,4,0,0,0,0,16,down,1,0.7473687999881804,01,2023-10-30_14h36.57.950,LDD2,2022.2.4,59.94995376043702,
LDD2_Pics/NL_38D.jpg,38,near,left,down,up,1,4,0,4,0,0,1,1,10,up,1,0.6413245000876486,01,2023-10-30_14h36.57.950,LDD2,2022.2.4,59.94995376043702,
LDD2_Pics/FL_42U.jpg,42,far,left,up,down,1,4,0,4,0,0,2,2,29,down,1,0.6681757001206279,01,2023-10-30_14h36.57.950,LDD2,2022.2.4,59.94995376043702,
LDD2_Pics/FR_38D.jpg,38,far,right,down,up,1,4,0,4,0,0,3,3,46,up,1,1.0047210999764502,01,2023-10-30_14h36.57.950,LDD2,2022.2.4,59.94995376043702,
LDD2_Pics/NL_18D.jpg,18,near,left,down,down,1,4,0,4,0,0,4,4,6,down,1,0.6398557999636978,01,2023-10-30_14h36.57.950,LDD2,2022.2.4,59.94995376043702,
LDD2_Pics/FL_34D.jpg,34,far,left,down,up,1,4,0,4,0,0,5,5,33,up,1,0.8987906000111252,01,2023-10-30_14h36.57.950,LDD2,2022.2.4,59.94995376043702,
LDD2_Pics/NR_42U.jpg,42,near,right,up,down,1,4,0,4,0,0,6,6,17,down,1,0.635047199903056,01,2023-10-30_14h36.57.950,LDD2,2022.2.4,59.94995376043702,
LDD2_Pics/NR_22D.jpg,22,near,right,down,down,1,4,0,4,0,0,7,7,19,down,1,0.6045504999347031,01,2023-10-30_14h36.57.950,LDD2,2022.2.4,59.94995376043702,
LDD2_Pics/NR_18D.jpg,18,near,right,down,down,1,4,0,4,0,0,8,8,18,down,1,0.5054319000337273,01,2023-10-30_14h36.57.950,LDD2,2022.2.4,59.94995376043702,
LDD2_Pics/FR_34U.jpg,34,far,right,up,down,1,4,0,4,0,0,9,9,39,down,1,0.9381025000475347,01,2023-10-30_14h36.57.950,LDD2,2022.2.4,59.94995376043702,
LDD2_Pics/NR_26D.jpg,26,near,right,down,down,1,4,0,4,0,0,10,10,20,down,1,0.582706400193274,01,2023-10-30_14h36.57.950,LDD2,2022.2.4,59.94995376043702,
LDD2_Pics/NL_18U.jpg,18,near,left,up,up,1,4,0,4,0,0,11,11,0,up,1,0.7638562999200076,01,2023-10-30_14h36.57.950,LDD2,2022.2.4,59.94995376043702,
LDD2_Pics/FL_42D.jpg,42,far,left,down,up,1,4,0,4,0,0,12,12,35,up,1,0.6975044999271631,01,2023-10-30_14h36.57.950,LDD2,2022.2.4,59.94995376043702,
LDD2_Pics/FL_34U.jpg,34,far,left,up,down,1,4,0,4,0,0,13,13,27,up,0,1.3781791999936104,01,2023-10-30_14h36.57.950,LDD2,2022.2.4,59.94995376043702,
LDD2_Pics/NL_42D.jpg,42,near,left,down,up,1,4,0,4,0,0,14,14,11,up,1,0.6948784000705928,01,2023-10-30_14h36.57.950,LDD2,2022.2.4,59.94995376043702,
LDD2_Pics/FR_18D.jpg,18,far,right,down,down,1,4,0,4,0,0,15,15,42,down,1,0.5990514000877738,01,2023-10-30_14h36.57.950,LDD2,2022.2.4,59.94995376043702,
LDD2_Pics/FL_22U.jpg,22,far,left,up,up,1,4,0,4,0,0,16,16,25,up,1,0.5069709999952465,01,2023-10-30_14h36.57.950,LDD2,2022.2.4,59.94995376043702,
LDD2_Pics/NR_18U.jpg,18,near,right,up,up,1,4,0,4,0,0,17,17,12,up,1,0.7383089000359178,01,2023-10-30_14h36.57.950,LDD2,2022.2.4,59.94995376043702,
LDD2_Pics/FR_22U.jpg,22,far,right,up,up,1,4,0,4,0,0,18,18,37,up,1,0.6087209000252187,01,2023-10-30_14h36.57.950,LDD2,2022.2.4,59.94995376043702,
LDD2_Pics/FL_18D.jpg,18,far,left,down,down,1,4,0,4,0,0,19,19,30,down,1,0.7088794000446796,01,2023-10-30_14h36.57.950,LDD2,2022.2.4,59.94995376043702,
LDD2_Pics/NR_26U.jpg,26,near,right,up,up,1,4,0,4,0,0,20,20,14,up,1,0.9968594000674784,01,2023-10-30_14h36.57.950,LDD2,2022.2.4,59.94995376043702,
LDD2_Pics/FR_22D.jpg,22,far,right,down,down,1,4,0,4,0,0,21,21,43,down,1,0.6169159999117255,01,2023-10-30_14h36.57.950,LDD2,2022.2.4,59.94995376043702,
LDD2_Pics/FL_38D.jpg,38,far,left,down,up,1,4,0,4,0,0,22,22,34,up,1,0.6923351001460105,01,2023-10-30_14h36.57.950,LDD2,2022.2.4,59.94995376043702,
LDD2_Pics/NR_34U.jpg,34,near,right,up,down,1,4,0,4,0,0,23,23,15,down,1,0.6684453999623656,01,2023-10-30_14h36.57.950,LDD2,2022.2.4,59.94995376043702,
LDD2_Pics/FR_18U.jpg,18,far,right,up,up,1,4,0,4,0,0,24,24,36,up,1,0.7660821999888867,01,2023-10-30_14h36.57.950,LDD2,2022.2.4,59.94995376043702,
LDD2_Pics/FL_22D.jpg,22,far,left,down,down,1,4,0,4,0,0,25,25,31,down,1,0.6436495000962168,01,2023-10-30_14h36.57.950,LDD2,2022.2.4,59.94995376043702,
LDD2_Pics/NR_34D.jpg,34,near,right,down,up,1,4,0,4,0,0,26,26,21,up,1,0.7740467998664826,01,2023-10-30_14h36.57.950,LDD2,2022.2.4,59.94995376043702,
LDD2_Pics/NR_22U.jpg,22,near,right,up,up,1,4,0,4,0,0,27,27,13,up,1,0.8749466000590473,01,2023-10-30_14h36.57.950,LDD2,2022.2.4,59.94995376043702,
LDD2_Pics/FR_34D.jpg,34,far,right,down,up,1,4,0,4,0,0,28,28,45,up,1,1.2592001999728382,01,2023-10-30_14h36.57.950,LDD2,2022.2.4,59.94995376043702,
LDD2_Pics/FL_26D.jpg,26,far,left,down,down,1,4,0,4,0,0,29,29,32,down,1,0.7100699001457542,01,2023-10-30_14h36.57.950,LDD2,2022.2.4,59.94995376043702,
LDD2_Pics/NR_42D.jpg,42,near,right,down,up,1,4,0,4,0,0,30,30,23,up,1,0.676020200131461,01,2023-10-30_14h36.57.950,LDD2,2022.2.4,59.94995376043702,
LDD2_Pics/FR_26U.jpg,26,far,right,up,up,1,4,0,4,0,0,31,31,38,up,1,0.6369936999399215,01,2023-10-30_14h36.57.950,LDD2,2022.2.4,59.94995376043702,
LDD2_Pics/NL_22U.jpg,22,near,left,up,up,1,4,0,4,0,0,32,32,1,up,1,0.8889484000392258,01,2023-10-30_14h36.57.950,LDD2,2022.2.4,59.94995376043702,
LDD2_Pics/NL_22D.jpg,22,near,left,down,down,1,4,0,4,0,0,33,33,7,up,0,0.9042791998945177,01,2023-10-30_14h36.57.950,LDD2,2022.2.4,59.94995376043702,
LDD2_Pics/NL_34D.jpg,34,near,left,down,up,1,4,0,4,0,0,34,34,9,up,1,0.8631478000897914,01,2023-10-30_14h36.57.950,LDD2,2022.2.4,59.94995376043702,
LDD2_Pics/NL_26D.jpg,26,near,left,down,down,1,4,0,4,0,0,35,35,8,down,1,0.784720600116998,01,2023-10-30_14h36.57.950,LDD2,2022.2.4,59.94995376043702,
LDD2_Pics/NL_42U.jpg,42,near,left,up,down,1,4,0,4,0,0,36,36,5,down,1,1.205296300118789,01,2023-10-30_14h36.57.950,LDD2,2022.2.4,59.94995376043702,
LDD2_Pics/FR_42U.jpg,42,far,right,up,down,1,4,0,4,0,0,37,37,41,down,1,0.7049201000481844,01,2023-10-30_14h36.57.950,LDD2,2022.2.4,59.94995376043702,
LDD2_Pics/NL_38U.jpg,38,near,left,up,down,1,4,0,4,0,0,38,38,4,down,1,0.6404549998696893,01,2023-10-30_14h36.57.950,LDD2,2022.2.4,59.94995376043702,
LDD2_Pics/FL_18U.jpg,18,far,left,up,up,1,4,0,4,0,0,39,39,24,up,1,0.6428969998378307,01,2023-10-30_14h36.57.950,LDD2,2022.2.4,59.94995376043702,
LDD2_Pics/FL_38U.jpg,38,far,left,up,down,1,4,0,4,0,0,40,40,28,down,1,0.5330757999327034,01,2023-10-30_14h36.57.950,LDD2,2022.2.4,59.94995376043702,
LDD2_Pics/FR_42D.jpg,42,far,right,down,up,1,4,0,4,0,0,41,41,47,up,1,0.7555066000204533,01,2023-10-30_14h36.57.950,LDD2,2022.2.4,59.94995376043702,
LDD2_Pics/NL_26U.jpg,26,near,left,up,up,1,4,0,4,0,0,42,42,2,up,1,0.6901602998841554,01,2023-10-30_14h36.57.950,LDD2,2022.2.4,59.94995376043702,
LDD2_Pics/FR_26D.jpg,26,far,right,down,down,1,4,0,4,0,0,43,43,44,down,1,0.6981713001150638,01,2023-10-30_14h36.57.950,LDD2,2022.2.4,59.94995376043702,
LDD2_Pics/NL_34U.jpg,34,near,left,up,down,1,4,0,4,0,0,44,44,3,down,1,0.66562410001643,01,2023-10-30_14h36.57.950,LDD2,2022.2.4,59.94995376043702,
LDD2_Pics/NR_38D.jpg,38,near,right,down,up,1,4,0,4,0,0,45,45,22,up,1,0.7156756001058966,01,2023-10-30_14h36.57.950,LDD2,2022.2.4,59.94995376043702,
LDD2_Pics/FR_38U.jpg,38,far,right,up,down,1,4,0,4,0,0,46,46,40,down,1,0.6757513999473304,01,2023-10-30_14h36.57.950,LDD2,2022.2.4,59.94995376043702,
LDD2_Pics/FL_26U.jpg,26,far,left,up,up,1,4,0,4,0,0,47,47,26,up,1,1.4607047999743372,01,2023-10-30_14h36.57.950,LDD2,2022.2.4,59.94995376043702,
LDD2_Pics/FL_18U.jpg,18,far,left,up,up,1,5,0,5,0,0,0,0,24,up,1,0.8668074999004602,01,2023-10-30_14h36.57.950,LDD2,2022.2.4,59.94995376043702,
LDD2_Pics/NL_34D.jpg,34,near,left,down,up,1,5,0,5,0,0,1,1,9,up,1,1.0438272000756115,01,2023-10-30_14h36.57.950,LDD2,2022.2.4,59.94995376043702,
LDD2_Pics/FR_38D.jpg,38,far,right,down,up,1,5,0,5,0,0,2,2,46,up,1,0.7501715000253171,01,2023-10-30_14h36.57.950,LDD2,2022.2.4,59.94995376043702,
LDD2_Pics/FR_42D.jpg,42,far,right,down,up,1,5,0,5,0,0,3,3,47,up,1,1.172398200025782,01,2023-10-30_14h36.57.950,LDD2,2022.2.4,59.94995376043702,
LDD2_Pics/NL_42U.jpg,42,near,left,up,down,1,5,0,5,0,0,4,4,5,down,1,0.7134953998029232,01,2023-10-30_14h36.57.950,LDD2,2022.2.4,59.94995376043702,
LDD2_Pics/FL_22D.jpg,22,far,left,down,down,1,5,0,5,0,0,5,5,31,down,1,0.6650400999933481,01,2023-10-30_14h36.57.950,LDD2,2022.2.4,59.94995376043702,
LDD2_Pics/FR_42U.jpg,42,far,right,up,down,1,5,0,5,0,0,6,6,41,down,1,0.6267938001547009,01,2023-10-30_14h36.57.950,LDD2,2022.2.4,59.94995376043702,
LDD2_Pics/NL_38D.jpg,38,near,left,down,up,1,5,0,5,0,0,7,7,10,up,1,0.7018947000615299,01,2023-10-30_14h36.57.950,LDD2,2022.2.4,59.94995376043702,
LDD2_Pics/NL_22U.jpg,22,near,left,up,up,1,5,0,5,0,0,8,8,1,up,1,0.477489200187847,01,2023-10-30_14h36.57.950,LDD2,2022.2.4,59.94995376043702,
LDD2_Pics/FR_26D.jpg,26,far,right,down,down,1,5,0,5,0,0,9,9,44,down,1,0.6145006001461297,01,2023-10-30_14h36.57.950,LDD2,2022.2.4,59.94995376043702,
LDD2_Pics/NR_38D.jpg,38,near,right,down,up,1,5,0,5,0,0,10,10,22,up,1,0.8103109998628497,01,2023-10-30_14h36.57.950,LDD2,2022.2.4,59.94995376043702,
LDD2_Pics/NL_18U.jpg,18,near,left,up,up,1,5,0,5,0,0,11,11,0,up,1,0.6222190000116825,01,2023-10-30_14h36.57.950,LDD2,2022.2.4,59.94995376043702,
LDD2_Pics/FR_38U.jpg,38,far,right,up,down,1,5,0,5,0,0,12,12,40,down,1,0.6729781001340598,01,2023-10-30_14h36.57.950,LDD2,2022.2.4,59.94995376043702,
LDD2_Pics/FL_34U.jpg,34,far,left,up,down,1,5,0,5,0,0,13,13,27,down,1,0.6423124000430107,01,2023-10-30_14h36.57.950,LDD2,2022.2.4,59.94995376043702,
LDD2_Pics/NR_26U.jpg,26,near,right,up,up,1,5,0,5,0,0,14,14,14,up,1,0.7491585998795927,01,2023-10-30_14h36.57.950,LDD2,2022.2.4,59.94995376043702,
LDD2_Pics/FR_22U.jpg,22,far,right,up,up,1,5,0,5,0,0,15,15,37,up,1,0.6984548000618815,01,2023-10-30_14h36.57.950,LDD2,2022.2.4,59.94995376043702,
LDD2_Pics/NR_42U.jpg,42,near,right,up,down,1,5,0,5,0,0,16,16,17,down,1,0.6110857999883592,01,2023-10-30_14h36.57.950,LDD2,2022.2.4,59.94995376043702,
LDD2_Pics/FL_18D.jpg,18,far,left,down,down,1,5,0,5,0,0,17,17,30,down,1,0.6624977998435497,01,2023-10-30_14h36.57.950,LDD2,2022.2.4,59.94995376043702,
LDD2_Pics/FR_18D.jpg,18,far,right,down,down,1,5,0,5,0,0,18,18,42,down,1,0.5206568001303822,01,2023-10-30_14h36.57.950,LDD2,2022.2.4,59.94995376043702,
LDD2_Pics/NR_34U.jpg,34,near,right,up,down,1,5,0,5,0,0,19,19,15,down,1,0.8390153001528233,01,2023-10-30_14h36.57.950,LDD2,2022.2.4,59.94995376043702,
LDD2_Pics/FL_26U.jpg,26,far,left,up,up,1,5,0,5,0,0,20,20,26,up,1,0.9057386999484152,01,2023-10-30_14h36.57.950,LDD2,2022.2.4,59.94995376043702,
LDD2_Pics/FR_34D.jpg,34,far,right,down,up,1,5,0,5,0,0,21,21,45,up,1,0.9536409999709576,01,2023-10-30_14h36.57.950,LDD2,2022.2.4,59.94995376043702,
LDD2_Pics/NR_18U.jpg,18,near,right,up,up,1,5,0,5,0,0,22,22,12,up,1,0.7990125000942498,01,2023-10-30_14h36.57.950,LDD2,2022.2.4,59.94995376043702,
LDD2_Pics/NR_42D.jpg,42,near,right,down,up,1,5,0,5,0,0,23,23,23,up,1,0.7306750998832285,01,2023-10-30_14h36.57.950,LDD2,2022.2.4,59.94995376043702,
LDD2_Pics/NL_22D.jpg,22,near,left,down,down,1,5,0,5,0,0,24,24,7,down,1,1.041644399985671,01,2023-10-30_14h36.57.950,LDD2,2022.2.4,59.94995376043702,
LDD2_Pics/NL_38U.jpg,38,near,left,up,down,1,5,0,5,0,0,25,25,4,down,1,0.947969000088051,01,2023-10-30_14h36.57.950,LDD2,2022.2.4,59.94995376043702,
LDD2_Pics/FR_26U.jpg,26,far,right,up,up,1,5,0,5,0,0,26,26,38,up,1,1.1617604000493884,01,2023-10-30_14h36.57.950,LDD2,2022.2.4,59.94995376043702,
LDD2_Pics/FL_26D.jpg,26,far,left,down,down,1,5,0,5,0,0,27,27,32,down,1,0.7187182998750359,01,2023-10-30_14h36.57.950,LDD2,2022.2.4,59.94995376043702,
LDD2_Pics/FL_42D.jpg,42,far,left,down,up,1,5,0,5,0,0,28,28,35,up,1,0.6544377999380231,01,2023-10-30_14h36.57.950,LDD2,2022.2.4,59.94995376043702,
LDD2_Pics/NR_34D.jpg,34,near,right,down,up,1,5,0,5,0,0,29,29,21,up,1,1.1844226999673992,01,2023-10-30_14h36.57.950,LDD2,2022.2.4,59.94995376043702,
LDD2_Pics/FL_38D.jpg,38,far,left,down,up,1,5,0,5,0,0,30,30,34,up,1,0.6208065999671817,01,2023-10-30_14h36.57.950,LDD2,2022.2.4,59.94995376043702,
LDD2_Pics/NR_22D.jpg,22,near,right,down,down,1,5,0,5,0,0,31,31,19,down,1,0.6070848999079317,01,2023-10-30_14h36.57.950,LDD2,2022.2.4,59.94995376043702,
LDD2_Pics/FL_22U.jpg,22,far,left,up,up,1,5,0,5,0,0,32,32,25,up,1,0.5549022001214325,01,2023-10-30_14h36.57.950,LDD2,2022.2.4,59.94995376043702,
LDD2_Pics/FR_18U.jpg,18,far,right,up,up,1,5,0,5,0,0,33,33,36,up,1,0.5930144998710603,01,2023-10-30_14h36.57.950,LDD2,2022.2.4,59.94995376043702,
LDD2_Pics/FL_42U.jpg,42,far,left,up,down,1,5,0,5,0,0,34,34,29,down,1,0.6292707999236882,01,2023-10-30_14h36.57.950,LDD2,2022.2.4,59.94995376043702,
LDD2_Pics/NL_18D.jpg,18,near,left,down,down,1,5,0,5,0,0,35,35,6,down,1,0.6089129999745637,01,2023-10-30_14h36.57.950,LDD2,2022.2.4,59.94995376043702,
LDD2_Pics/FL_38U.jpg,38,far,left,up,down,1,5,0,5,0,0,36,36,28,down,1,0.508610500022769,01,2023-10-30_14h36.57.950,LDD2,2022.2.4,59.94995376043702,
LDD2_Pics/NL_26D.jpg,26,near,left,down,down,1,5,0,5,0,0,37,37,8,down,1,0.5719769999850541,01,2023-10-30_14h36.57.950,LDD2,2022.2.4,59.94995376043702,
LDD2_Pics/NL_26U.jpg,26,near,left,up,up,1,5,0,5,0,0,38,38,2,up,1,0.8255903001409024,01,2023-10-30_14h36.57.950,LDD2,2022.2.4,59.94995376043702,
LDD2_Pics/NR_26D.jpg,26,near,right,down,down,1,5,0,5,0,0,39,39,20,down,1,0.9724585998337716,01,2023-10-30_14h36.57.950,LDD2,2022.2.4,59.94995376043702,
LDD2_Pics/NR_38U.jpg,38,near,right,up,down,1,5,0,5,0,0,40,40,16,down,1,0.6491244998760521,01,2023-10-30_14h36.57.950,LDD2,2022.2.4,59.94995376043702,
LDD2_Pics/NR_18D.jpg,18,near,right,down,down,1,5,0,5,0,0,41,41,18,down,1,0.5476794000715017,01,2023-10-30_14h36.57.950,LDD2,2022.2.4,59.94995376043702,
LDD2_Pics/NL_34U.jpg,34,near,left,up,down,1,5,0,5,0,0,42,42,3,down,1,1.2496998000424355,01,2023-10-30_14h36.57.950,LDD2,2022.2.4,59.94995376043702,
LDD2_Pics/FR_34U.jpg,34,far,right,up,down,1,5,0,5,0,0,43,43,39,down,1,0.8034871998243034,01,2023-10-30_14h36.57.950,LDD2,2022.2.4,59.94995376043702,
LDD2_Pics/FL_34D.jpg,34,far,left,down,up,1,5,0,5,0,0,44,44,33,up,1,1.6473819001112133,01,2023-10-30_14h36.57.950,LDD2,2022.2.4,59.94995376043702,
LDD2_Pics/NR_22U.jpg,22,near,right,up,up,1,5,0,5,0,0,45,45,13,up,1,1.488809400005266,01,2023-10-30_14h36.57.950,LDD2,2022.2.4,59.94995376043702,
LDD2_Pics/FR_22D.jpg,22,far,right,down,down,1,5,0,5,0,0,46,46,43,down,1,0.9205430999863893,01,2023-10-30_14h36.57.950,LDD2,2022.2.4,59.94995376043702,
LDD2_Pics/NL_42D.jpg,42,near,left,down,up,1,5,0,5,0,0,47,47,11,up,1,0.7666713998187333,01,2023-10-30_14h36.57.950,LDD2,2022.2.4,59.94995376043702,
LDD2_Pics/NL_22U.jpg,22,near,left,up,up,1,6,0,6,0,0,0,0,1,up,1,0.7672354001551867,01,2023-10-30_14h36.57.950,LDD2,2022.2.4,59.94995376043702,
LDD2_Pics/FL_42U.jpg,42,far,left,up,down,1,6,0,6,0,0,1,1,29,down,1,0.7405100001487881,01,2023-10-30_14h36.57.950,LDD2,2022.2.4,59.94995376043702,
LDD2_Pics/NL_26U.jpg,26,near,left,up,up,1,6,0,6,0,0,2,2,2,up,1,0.7304008000064641,01,2023-10-30_14h36.57.950,LDD2,2022.2.4,59.94995376043702,
LDD2_Pics/FR_26U.jpg,26,far,right,up,up,1,6,0,6,0,0,3,3,38,up,1,0.6333951998967677,01,2023-10-30_14h36.57.950,LDD2,2022.2.4,59.94995376043702,
LDD2_Pics/FL_22U.jpg,22,far,left,up,up,1,6,0,6,0,0,4,4,25,up,1,0.7326867000665516,01,2023-10-30_14h36.57.950,LDD2,2022.2.4,59.94995376043702,
LDD2_Pics/NL_42U.jpg,42,near,left,up,down,1,6,0,6,0,0,5,5,5,down,1,0.795872500166297,01,2023-10-30_14h36.57.950,LDD2,2022.2.4,59.94995376043702,
LDD2_Pics/FR_34U.jpg,34,far,right,up,down,1,6,0,6,0,0,6,6,39,down,1,0.5920925000682473,01,2023-10-30_14h36.57.950,LDD2,2022.2.4,59.94995376043702,
LDD2_Pics/NL_34D.jpg,34,near,left,down,up,1,6,0,6,0,0,7,7,9,up,1,0.8524180999957025,01,2023-10-30_14h36.57.950,LDD2,2022.2.4,59.94995376043702,
LDD2_Pics/NR_18D.jpg,18,near,right,down,down,1,6,0,6,0,0,8,8,18,down,1,0.8542287000454962,01,2023-10-30_14h36.57.950,LDD2,2022.2.4,59.94995376043702,
LDD2_Pics/NL_26D.jpg,26,near,left,down,down,1,6,0,6,0,0,9,9,8,down,1,0.8074126001447439,01,2023-10-30_14h36.57.950,LDD2,2022.2.4,59.94995376043702,
LDD2_Pics/FR_22D.jpg,22,far,right,down,down,1,6,0,6,0,0,10,10,43,down,1,1.2507418999448419,01,2023-10-30_14h36.57.950,LDD2,2022.2.4,59.94995376043702,
LDD2_Pics/NL_42D.jpg,42,near,left,down,up,1,6,0,6,0,0,11,11,11,up,1,0.5887122999411076,01,2023-10-30_14h36.57.950,LDD2,2022.2.4,59.94995376043702,
LDD2_Pics/NR_38D.jpg,38,near,right,down,up,1,6,0,6,0,0,12,12,22,up,1,1.769069700036198,01,2023-10-30_14h36.57.950,LDD2,2022.2.4,59.94995376043702,
LDD2_Pics/NR_34D.jpg,34,near,right,down,up,1,6,0,6,0,0,13,13,21,up,1,0.7333722000475973,01,2023-10-30_14h36.57.950,LDD2,2022.2.4,59.94995376043702,
LDD2_Pics/NR_22U.jpg,22,near,right,up,up,1,6,0,6,0,0,14,14,13,up,1,0.5811717000324279,01,2023-10-30_14h36.57.950,LDD2,2022.2.4,59.94995376043702,
LDD2_Pics/FR_18U.jpg,18,far,right,up,up,1,6,0,6,0,0,15,15,36,up,1,0.514041000045836,01,2023-10-30_14h36.57.950,LDD2,2022.2.4,59.94995376043702,
LDD2_Pics/NR_26U.jpg,26,near,right,up,up,1,6,0,6,0,0,16,16,14,up,1,0.6008671000599861,01,2023-10-30_14h36.57.950,LDD2,2022.2.4,59.94995376043702,
LDD2_Pics/NR_18U.jpg,18,near,right,up,up,1,6,0,6,0,0,17,17,12,up,1,0.6766556999646127,01,2023-10-30_14h36.57.950,LDD2,2022.2.4,59.94995376043702,
LDD2_Pics/FR_26D.jpg,26,far,right,down,down,1,6,0,6,0,0,18,18,44,down,1,0.6696965999435633,01,2023-10-30_14h36.57.950,LDD2,2022.2.4,59.94995376043702,
LDD2_Pics/NL_38U.jpg,38,near,left,up,down,1,6,0,6,0,0,19,19,4,down,1,0.7989287001546472,01,2023-10-30_14h36.57.950,LDD2,2022.2.4,59.94995376043702,
LDD2_Pics/NR_42U.jpg,42,near,right,up,down,1,6,0,6,0,0,20,20,17,down,1,0.5952950001228601,01,2023-10-30_14h36.57.950,LDD2,2022.2.4,59.94995376043702,
LDD2_Pics/NL_38D.jpg,38,near,left,down,up,1,6,0,6,0,0,21,21,10,up,1,1.0554587000515312,01,2023-10-30_14h36.57.950,LDD2,2022.2.4,59.94995376043702,
LDD2_Pics/NR_42D.jpg,42,near,right,down,up,1,6,0,6,0,0,22,22,23,up,1,0.6167639000341296,01,2023-10-30_14h36.57.950,LDD2,2022.2.4,59.94995376043702,
LDD2_Pics/FL_18U.jpg,18,far,left,up,up,1,6,0,6,0,0,23,23,24,up,1,0.6447618000674993,01,2023-10-30_14h36.57.950,LDD2,2022.2.4,59.94995376043702,
LDD2_Pics/FL_38U.jpg,38,far,left,up,down,1,6,0,6,0,0,24,24,28,down,1,0.7510685999877751,01,2023-10-30_14h36.57.950,LDD2,2022.2.4,59.94995376043702,
LDD2_Pics/FR_42U.jpg,42,far,right,up,down,1,6,0,6,0,0,25,25,41,down,1,0.6285961999092251,01,2023-10-30_14h36.57.950,LDD2,2022.2.4,59.94995376043702,
LDD2_Pics/FR_22U.jpg,22,far,right,up,up,1,6,0,6,0,0,26,26,37,up,1,0.8399904000107199,01,2023-10-30_14h36.57.950,LDD2,2022.2.4,59.94995376043702,
LDD2_Pics/NR_22D.jpg,22,near,right,down,down,1,6,0,6,0,0,27,27,19,down,1,0.6906604000832886,01,2023-10-30_14h36.57.950,LDD2,2022.2.4,59.94995376043702,
LDD2_Pics/FL_38D.jpg,38,far,left,down,up,1,6,0,6,0,0,28,28,34,up,1,0.9866977999918163,01,2023-10-30_14h36.57.950,LDD2,2022.2.4,59.94995376043702,
LDD2_Pics/NL_18U.jpg,18,near,left,up,up,1,6,0,6,0,0,29,29,0,up,1,0.5828235000371933,01,2023-10-30_14h36.57.950,LDD2,2022.2.4,59.94995376043702,
LDD2_Pics/FR_42D.jpg,42,far,right,down,up,1,6,0,6,0,0,30,30,47,up,1,0.5881837999913841,01,2023-10-30_14h36.57.950,LDD2,2022.2.4,59.94995376043702,
LDD2_Pics/FL_42D.jpg,42,far,left,down,up,1,6,0,6,0,0,31,31,35,up,1,0.5759617001749575,01,2023-10-30_14h36.57.950,LDD2,2022.2.4,59.94995376043702,
LDD2_Pics/FL_26D.jpg,26,far,left,down,down,1,6,0,6,0,0,32,32,32,down,1,1.0371117999311537,01,2023-10-30_14h36.57.950,LDD2,2022.2.4,59.94995376043702,
LDD2_Pics/NR_38U.jpg,38,near,right,up,down,1,6,0,6,0,0,33,33,16,down,1,0.6947327998932451,01,2023-10-30_14h36.57.950,LDD2,2022.2.4,59.94995376043702,
LDD2_Pics/FL_34D.jpg,34,far,left,down,up,1,6,0,6,0,0,34,34,33,up,1,0.8399825000669807,01,2023-10-30_14h36.57.950,LDD2,2022.2.4,59.94995376043702,
LDD2_Pics/FR_34D.jpg,34,far,right,down,up,1,6,0,6,0,0,35,35,45,up,1,1.2659266002010554,01,2023-10-30_14h36.57.950,LDD2,2022.2.4,59.94995376043702,
LDD2_Pics/FL_22D.jpg,22,far,left,down,down,1,6,0,6,0,0,36,36,31,down,1,0.7068519999738783,01,2023-10-30_14h36.57.950,LDD2,2022.2.4,59.94995376043702,
LDD2_Pics/NL_18D.jpg,18,near,left,down,down,1,6,0,6,0,0,37,37,6,down,1,0.6185868999455124,01,2023-10-30_14h36.57.950,LDD2,2022.2.4,59.94995376043702,
LDD2_Pics/FR_38U.jpg,38,far,right,up,down,1,6,0,6,0,0,38,38,40,down,1,0.5579961999319494,01,2023-10-30_14h36.57.950,LDD2,2022.2.4,59.94995376043702,
LDD2_Pics/FL_18D.jpg,18,far,left,down,down,1,6,0,6,0,0,39,39,30,down,1,0.5235292001161724,01,2023-10-30_14h36.57.950,LDD2,2022.2.4,59.94995376043702,
LDD2_Pics/NR_34U.jpg,34,near,right,up,down,1,6,0,6,0,0,40,40,15,down,1,0.4984718000050634,01,2023-10-30_14h36.57.950,LDD2,2022.2.4,59.94995376043702,
LDD2_Pics/FL_26U.jpg,26,far,left,up,up,1,6,0,6,0,0,41,41,26,up,1,0.9549858998507261,01,2023-10-30_14h36.57.950,LDD2,2022.2.4,59.94995376043702,
LDD2_Pics/NR_26D.jpg,26,near,right,down,down,1,6,0,6,0,0,42,42,20,down,1,0.6326023999135941,01,2023-10-30_14h36.57.950,LDD2,2022.2.4,59.94995376043702,
LDD2_Pics/FL_34U.jpg,34,far,left,up,down,1,6,0,6,0,0,43,43,27,down,1,0.8751900000497699,01,2023-10-30_14h36.57.950,LDD2,2022.2.4,59.94995376043702,
LDD2_Pics/NL_22D.jpg,22,near,left,down,down,1,6,0,6,0,0,44,44,7,down,1,0.6040890999138355,01,2023-10-30_14h36.57.950,LDD2,2022.2.4,59.94995376043702,
LDD2_Pics/FR_38D.jpg,38,far,right,down,up,1,6,0,6,0,0,45,45,46,up,1,0.8078568999189883,01,2023-10-30_14h36.57.950,LDD2,2022.2.4,59.94995376043702,
LDD2_Pics/FR_18D.jpg,18,far,right,down,down,1,6,0,6,0,0,46,46,42,down,1,0.635747600113973,01,2023-10-30_14h36.57.950,LDD2,2022.2.4,59.94995376043702,
LDD2_Pics/NL_34U.jpg,34,near,left,up,down,1,6,0,6,0,0,47,47,3,down,1,0.7655096999369562,01,2023-10-30_14h36.57.950,LDD2,2022.2.4,59.94995376043702,
LDD2_Pics/NR_38D.jpg,38,near,right,down,up,1,7,0,7,0,0,0,0,22,up,1,0.9750190998893231,01,2023-10-30_14h36.57.950,LDD2,2022.2.4,59.94995376043702,
LDD2_Pics/NR_18U.jpg,18,near,right,up,up,1,7,0,7,0,0,1,1,12,up,1,0.5395800999831408,01,2023-10-30_14h36.57.950,LDD2,2022.2.4,59.94995376043702,
LDD2_Pics/FL_42U.jpg,42,far,left,up,down,1,7,0,7,0,0,2,2,29,down,1,0.6588795001152903,01,2023-10-30_14h36.57.950,LDD2,2022.2.4,59.94995376043702,
LDD2_Pics/NR_26D.jpg,26,near,right,down,down,1,7,0,7,0,0,3,3,20,down,1,0.5873654000461102,01,2023-10-30_14h36.57.950,LDD2,2022.2.4,59.94995376043702,
LDD2_Pics/NR_34U.jpg,34,near,right,up,down,1,7,0,7,0,0,4,4,15,down,1,0.7604483000468463,01,2023-10-30_14h36.57.950,LDD2,2022.2.4,59.94995376043702,
LDD2_Pics/FR_38U.jpg,38,far,right,up,down,1,7,0,7,0,0,5,5,40,down,1,0.4617117000743747,01,2023-10-30_14h36.57.950,LDD2,2022.2.4,59.94995376043702,
LDD2_Pics/NR_42U.jpg,42,near,right,up,down,1,7,0,7,0,0,6,6,17,down,1,0.5199961001053452,01,2023-10-30_14h36.57.950,LDD2,2022.2.4,59.94995376043702,
LDD2_Pics/NR_22U.jpg,22,near,right,up,up,1,7,0,7,0,0,7,7,13,up,1,0.8782285000197589,01,2023-10-30_14h36.57.950,LDD2,2022.2.4,59.94995376043702,
LDD2_Pics/FR_26D.jpg,26,far,right,down,down,1,7,0,7,0,0,8,8,44,down,1,0.6398345998022705,01,2023-10-30_14h36.57.950,LDD2,2022.2.4,59.94995376043702,
LDD2_Pics/FL_26U.jpg,26,far,left,up,up,1,7,0,7,0,0,9,9,26,up,1,1.1141578999813646,01,2023-10-30_14h36.57.950,LDD2,2022.2.4,59.94995376043702,
LDD2_Pics/FL_18U.jpg,18,far,left,up,up,1,7,0,7,0,0,10,10,24,up,1,0.6170630000997335,01,2023-10-30_14h36.57.950,LDD2,2022.2.4,59.94995376043702,
LDD2_Pics/FR_38D.jpg,38,far,right,down,up,1,7,0,7,0,0,11,11,46,up,1,1.0760562000796199,01,2023-10-30_14h36.57.950,LDD2,2022.2.4,59.94995376043702,
LDD2_Pics/FL_38U.jpg,38,far,left,up,down,1,7,0,7,0,0,12,12,28,down,1,0.6849479000084102,01,2023-10-30_14h36.57.950,LDD2,2022.2.4,59.94995376043702,
LDD2_Pics/FL_22D.jpg,22,far,left,down,down,1,7,0,7,0,0,13,13,31,down,1,0.9491869998164475,01,2023-10-30_14h36.57.950,LDD2,2022.2.4,59.94995376043702,
LDD2_Pics/FL_34D.jpg,34,far,left,down,up,1,7,0,7,0,0,14,14,33,down,0,0.36298349988646805,01,2023-10-30_14h36.57.950,LDD2,2022.2.4,59.94995376043702,
LDD2_Pics/NL_22D.jpg,22,near,left,down,down,1,7,0,7,0,0,15,15,7,down,1,0.7775628999806941,01,2023-10-30_14h36.57.950,LDD2,2022.2.4,59.94995376043702,
LDD2_Pics/FR_34D.jpg,34,far,right,down,up,1,7,0,7,0,0,16,16,45,up,1,0.8944796998985112,01,2023-10-30_14h36.57.950,LDD2,2022.2.4,59.94995376043702,
LDD2_Pics/NR_38U.jpg,38,near,right,up,down,1,7,0,7,0,0,17,17,16,down,1,0.7110391000751406,01,2023-10-30_14h36.57.950,LDD2,2022.2.4,59.94995376043702,
LDD2_Pics/NL_34U.jpg,34,near,left,up,down,1,7,0,7,0,0,18,18,3,down,1,0.6300945000257343,01,2023-10-30_14h36.57.950,LDD2,2022.2.4,59.94995376043702,
LDD2_Pics/NL_18D.jpg,18,near,left,down,down,1,7,0,7,0,0,19,19,6,down,1,0.5137585999909788,01,2023-10-30_14h36.57.950,LDD2,2022.2.4,59.94995376043702,
LDD2_Pics/NL_18U.jpg,18,near,left,up,up,1,7,0,7,0,0,20,20,0,down,0,0.4250304999295622,01,2023-10-30_14h36.57.950,LDD2,2022.2.4,59.94995376043702,
LDD2_Pics/FL_38D.jpg,38,far,left,down,up,1,7,0,7,0,0,21,21,34,up,1,0.9716992999892682,01,2023-10-30_14h36.57.950,LDD2,2022.2.4,59.94995376043702,
LDD2_Pics/NR_34D.jpg,34,near,right,down,up,1,7,0,7,0,0,22,22,21,up,1,0.9686937001533806,01,2023-10-30_14h36.57.950,LDD2,2022.2.4,59.94995376043702,
LDD2_Pics/NL_38U.jpg,38,near,left,up,down,1,7,0,7,0,0,23,23,4,down,1,0.661731299944222,01,2023-10-30_14h36.57.950,LDD2,2022.2.4,59.94995376043702,
LDD2_Pics/FR_26U.jpg,26,far,right,up,up,1,7,0,7,0,0,24,24,38,up,1,0.7436112998984754,01,2023-10-30_14h36.57.950,LDD2,2022.2.4,59.94995376043702,
LDD2_Pics/NR_18D.jpg,18,near,right,down,down,1,7,0,7,0,0,25,25,18,down,1,0.621241900138557,01,2023-10-30_14h36.57.950,LDD2,2022.2.4,59.94995376043702,
LDD2_Pics/NL_42D.jpg,42,near,left,down,up,1,7,0,7,0,0,26,26,11,up,1,0.6251397000160068,01,2023-10-30_14h36.57.950,LDD2,2022.2.4,59.94995376043702,
LDD2_Pics/FL_42D.jpg,42,far,left,down,up,1,7,0,7,0,0,27,27,35,up,1,0.5716941000428051,01,2023-10-30_14h36.57.950,LDD2,2022.2.4,59.94995376043702,
LDD2_Pics/NR_26U.jpg,26,near,right,up,up,1,7,0,7,0,0,28,28,14,up,1,0.6564829999115318,01,2023-10-30_14h36.57.950,LDD2,2022.2.4,59.94995376043702,
LDD2_Pics/NR_22D.jpg,22,near,right,down,down,1,7,0,7,0,0,29,29,19,down,1,0.866551399929449,01,2023-10-30_14h36.57.950,LDD2,2022.2.4,59.94995376043702,
LDD2_Pics/NL_38D.jpg,38,near,left,down,up,1,7,0,7,0,0,30,30,10,up,1,0.7482249999884516,01,2023-10-30_14h36.57.950,LDD2,2022.2.4,59.94995376043702,
LDD2_Pics/FL_22U.jpg,22,far,left,up,up,1,7,0,7,0,0,31,31,25,up,1,0.6260078998748213,01,2023-10-30_14h36.57.950,LDD2,2022.2.4,59.94995376043702,
LDD2_Pics/FL_18D.jpg,18,far,left,down,down,1,7,0,7,0,0,32,32,30,down,1,0.5970310000702739,01,2023-10-30_14h36.57.950,LDD2,2022.2.4,59.94995376043702,
LDD2_Pics/FR_22D.jpg,22,far,right,down,down,1,7,0,7,0,0,33,33,43,down,1,0.7385788999963552,01,2023-10-30_14h36.57.950,LDD2,2022.2.4,59.94995376043702,
LDD2_Pics/FL_26D.jpg,26,far,left,down,down,1,7,0,7,0,0,34,34,32,down,1,0.552915200125426,01,2023-10-30_14h36.57.950,LDD2,2022.2.4,59.94995376043702,
LDD2_Pics/FR_18U.jpg,18,far,right,up,up,1,7,0,7,0,0,35,35,36,up,1,0.7349028000608087,01,2023-10-30_14h36.57.950,LDD2,2022.2.4,59.94995376043702,
LDD2_Pics/FR_42U.jpg,42,far,right,up,down,1,7,0,7,0,0,36,36,41,down,1,0.540571500081569,01,2023-10-30_14h36.57.950,LDD2,2022.2.4,59.94995376043702,
LDD2_Pics/FR_34U.jpg,34,far,right,up,down,1,7,0,7,0,0,37,37,39,down,1,0.6196178998798132,01,2023-10-30_14h36.57.950,LDD2,2022.2.4,59.94995376043702,
LDD2_Pics/NL_26D.jpg,26,near,left,down,down,1,7,0,7,0,0,38,38,8,down,1,0.6219202999491245,01,2023-10-30_14h36.57.950,LDD2,2022.2.4,59.94995376043702,
LDD2_Pics/FR_18D.jpg,18,far,right,down,down,1,7,0,7,0,0,39,39,42,down,1,0.5608920999802649,01,2023-10-30_14h36.57.950,LDD2,2022.2.4,59.94995376043702,
LDD2_Pics/NL_34D.jpg,34,near,left,down,up,1,7,0,7,0,0,40,40,9,up,1,0.846563900122419,01,2023-10-30_14h36.57.950,LDD2,2022.2.4,59.94995376043702,
LDD2_Pics/NL_22U.jpg,22,near,left,up,up,1,7,0,7,0,0,41,41,1,up,1,0.6170473999809474,01,2023-10-30_14h36.57.950,LDD2,2022.2.4,59.94995376043702,
LDD2_Pics/NR_42D.jpg,42,near,right,down,up,1,7,0,7,0,0,42,42,23,up,1,1.0927014998160303,01,2023-10-30_14h36.57.950,LDD2,2022.2.4,59.94995376043702,
LDD2_Pics/NL_42U.jpg,42,near,left,up,down,1,7,0,7,0,0,43,43,5,down,1,0.7166166000533849,01,2023-10-30_14h36.57.950,LDD2,2022.2.4,59.94995376043702,
LDD2_Pics/NL_26U.jpg,26,near,left,up,up,1,7,0,7,0,0,44,44,2,up,1,0.9806265998631716,01,2023-10-30_14h36.57.950,LDD2,2022.2.4,59.94995376043702,
LDD2_Pics/FL_34U.jpg,34,far,left,up,down,1,7,0,7,0,0,45,45,27,down,1,0.7692480999976397,01,2023-10-30_14h36.57.950,LDD2,2022.2.4,59.94995376043702,
LDD2_Pics/FR_42D.jpg,42,far,right,down,up,1,7,0,7,0,0,46,46,47,up,1,0.6461811999324709,01,2023-10-30_14h36.57.950,LDD2,2022.2.4,59.94995376043702,
LDD2_Pics/FR_22U.jpg,22,far,right,up,up,1,7,0,7,0,0,47,47,37,up,1,1.4160257000476122,01,2023-10-30_14h36.57.950,LDD2,2022.2.4,59.94995376043702,
LDD2_Pics/FR_34U.jpg,34,far,right,up,down,1,8,0,8,0,0,0,0,39,down,1,1.0075181000865996,01,2023-10-30_14h36.57.950,LDD2,2022.2.4,59.94995376043702,
LDD2_Pics/FR_18D.jpg,18,far,right,down,down,1,8,0,8,0,0,1,1,42,down,1,0.6579465998802334,01,2023-10-30_14h36.57.950,LDD2,2022.2.4,59.94995376043702,
LDD2_Pics/NL_22D.jpg,22,near,left,down,down,1,8,0,8,0,0,2,2,7,down,1,0.5720218000933528,01,2023-10-30_14h36.57.950,LDD2,2022.2.4,59.94995376043702,
LDD2_Pics/FR_22U.jpg,22,far,right,up,up,1,8,0,8,0,0,3,3,37,up,1,0.9224707998801023,01,2023-10-30_14h36.57.950,LDD2,2022.2.4,59.94995376043702,
LDD2_Pics/NR_42D.jpg,42,near,right,down,up,1,8,0,8,0,0,4,4,23,up,1,0.59211550001055,01,2023-10-30_14h36.57.950,LDD2,2022.2.4,59.94995376043702,
LDD2_Pics/NR_38U.jpg,38,near,right,up,down,1,8,0,8,0,0,5,5,16,down,1,0.6204808000475168,01,2023-10-30_14h36.57.950,LDD2,2022.2.4,59.94995376043702,
LDD2_Pics/NR_34D.jpg,34,near,right,down,up,1,8,0,8,0,0,6,6,21,up,1,0.7192651000805199,01,2023-10-30_14h36.57.950,LDD2,2022.2.4,59.94995376043702,
LDD2_Pics/NL_38U.jpg,38,near,left,up,down,1,8,0,8,0,0,7,7,4,down,1,0.6300782000180334,01,2023-10-30_14h36.57.950,LDD2,2022.2.4,59.94995376043702,
LDD2_Pics/FR_22D.jpg,22,far,right,down,down,1,8,0,8,0,0,8,8,43,down,1,0.5291692998725921,01,2023-10-30_14h36.57.950,LDD2,2022.2.4,59.94995376043702,
LDD2_Pics/NR_42U.jpg,42,near,right,up,down,1,8,0,8,0,0,9,9,17,down,1,0.568013200070709,01,2023-10-30_14h36.57.950,LDD2,2022.2.4,59.94995376043702,
LDD2_Pics/FL_18D.jpg,18,far,left,down,down,1,8,0,8,0,0,10,10,30,down,1,0.6855130998883396,01,2023-10-30_14h36.57.950,LDD2,2022.2.4,59.94995376043702,
LDD2_Pics/FR_34D.jpg,34,far,right,down,up,1,8,0,8,0,0,11,11,45,up,1,0.6217018000315875,01,2023-10-30_14h36.57.950,LDD2,2022.2.4,59.94995376043702,
LDD2_Pics/NR_26D.jpg,26,near,right,down,down,1,8,0,8,0,0,12,12,20,down,1,0.8889442998915911,01,2023-10-30_14h36.57.950,LDD2,2022.2.4,59.94995376043702,
LDD2_Pics/FR_38U.jpg,38,far,right,up,down,1,8,0,8,0,0,13,13,40,down,1,0.6332089998759329,01,2023-10-30_14h36.57.950,LDD2,2022.2.4,59.94995376043702,
LDD2_Pics/NR_26U.jpg,26,near,right,up,up,1,8,0,8,0,0,14,14,14,up,1,0.8130348001141101,01,2023-10-30_14h36.57.950,LDD2,2022.2.4,59.94995376043702,
LDD2_Pics/FR_26D.jpg,26,far,right,down,down,1,8,0,8,0,0,15,15,44,down,1,0.6396802000235766,01,2023-10-30_14h36.57.950,LDD2,2022.2.4,59.94995376043702,
LDD2_Pics/NL_34U.jpg,34,near,left,up,down,1,8,0,8,0,0,16,16,3,down,1,0.641870099818334,01,2023-10-30_14h36.57.950,LDD2,2022.2.4,59.94995376043702,
LDD2_Pics/FL_18U.jpg,18,far,left,up,up,1,8,0,8,0,0,17,17,24,up,1,0.7565202999394387,01,2023-10-30_14h36.57.950,LDD2,2022.2.4,59.94995376043702,
LDD2_Pics/NL_26U.jpg,26,near,left,up,up,1,8,0,8,0,0,18,18,2,up,1,0.5616659999359399,01,2023-10-30_14h36.57.950,LDD2,2022.2.4,59.94995376043702,
LDD2_Pics/FL_22U.jpg,22,far,left,up,up,1,8,0,8,0,0,19,19,25,up,1,0.5676694000139832,01,2023-10-30_14h36.57.950,LDD2,2022.2.4,59.94995376043702,
LDD2_Pics/FL_38D.jpg,38,far,left,down,up,1,8,0,8,0,0,20,20,34,up,1,0.5804363999050111,01,2023-10-30_14h36.57.950,LDD2,2022.2.4,59.94995376043702,
LDD2_Pics/NR_18D.jpg,18,near,right,down,down,1,8,0,8,0,0,21,21,18,down,1,0.610700499964878,01,2023-10-30_14h36.57.950,LDD2,2022.2.4,59.94995376043702,
LDD2_Pics/NL_42D.jpg,42,near,left,down,up,1,8,0,8,0,0,22,22,11,up,1,0.6302090000826865,01,2023-10-30_14h36.57.950,LDD2,2022.2.4,59.94995376043702,
LDD2_Pics/NL_22U.jpg,22,near,left,up,up,1,8,0,8,0,0,23,23,1,up,1,0.624882800038904,01,2023-10-30_14h36.57.950,LDD2,2022.2.4,59.94995376043702,
LDD2_Pics/FL_42D.jpg,42,far,left,down,up,1,8,0,8,0,0,24,24,35,up,1,0.604911700123921,01,2023-10-30_14h36.57.950,LDD2,2022.2.4,59.94995376043702,
LDD2_Pics/FL_26U.jpg,26,far,left,up,up,1,8,0,8,0,0,25,25,26,up,1,0.8396916000638157,01,2023-10-30_14h36.57.950,LDD2,2022.2.4,59.94995376043702,
LDD2_Pics/NR_18U.jpg,18,near,right,up,up,1,8,0,8,0,0,26,26,12,up,1,2.457852100022137,01,2023-10-30_14h36.57.950,LDD2,2022.2.4,59.94995376043702,
LDD2_Pics/NL_34D.jpg,34,near,left,down,up,1,8,0,8,0,0,27,27,9,up,1,1.01032350002788,01,2023-10-30_14h36.57.950,LDD2,2022.2.4,59.94995376043702,
LDD2_Pics/NR_38D.jpg,38,near,right,down,up,1,8,0,8,0,0,28,28,22,up,1,0.5980420000851154,01,2023-10-30_14h36.57.950,LDD2,2022.2.4,59.94995376043702,
LDD2_Pics/FR_42U.jpg,42,far,right,up,down,1,8,0,8,0,0,29,29,41,down,1,0.7219940000213683,01,2023-10-30_14h36.57.950,LDD2,2022.2.4,59.94995376043702,
LDD2_Pics/FL_42U.jpg,42,far,left,up,down,1,8,0,8,0,0,30,30,29,down,1,0.6734249000437558,01,2023-10-30_14h36.57.950,LDD2,2022.2.4,59.94995376043702,
LDD2_Pics/FL_22D.jpg,22,far,left,down,down,1,8,0,8,0,0,31,31,31,down,1,0.6016844999976456,01,2023-10-30_14h36.57.950,LDD2,2022.2.4,59.94995376043702,
LDD2_Pics/FL_34U.jpg,34,far,left,up,down,1,8,0,8,0,0,32,32,27,down,1,0.60551210003905,01,2023-10-30_14h36.57.950,LDD2,2022.2.4,59.94995376043702,
LDD2_Pics/FR_26U.jpg,26,far,right,up,up,1,8,0,8,0,0,33,33,38,up,1,0.8815260999836028,01,2023-10-30_14h36.57.950,LDD2,2022.2.4,59.94995376043702,
LDD2_Pics/NL_38D.jpg,38,near,left,down,up,1,8,0,8,0,0,34,34,10,up,1,1.14717060001567,01,2023-10-30_14h36.57.950,LDD2,2022.2.4,59.94995376043702,
LDD2_Pics/FR_18U.jpg,18,far,right,up,up,1,8,0,8,0,0,35,35,36,up,1,0.7924075000919402,01,2023-10-30_14h36.57.950,LDD2,2022.2.4,59.94995376043702,
LDD2_Pics/NL_42U.jpg,42,near,left,up,down,1,8,0,8,0,0,36,36,5,down,1,0.9000960001721978,01,2023-10-30_14h36.57.950,LDD2,2022.2.4,59.94995376043702,
LDD2_Pics/FR_38D.jpg,38,far,right,down,up,1,8,0,8,0,0,37,37,46,up,1,0.6445016998331994,01,2023-10-30_14h36.57.950,LDD2,2022.2.4,59.94995376043702,
LDD2_Pics/FL_26D.jpg,26,far,left,down,down,1,8,0,8,0,0,38,38,32,down,1,0.6873409000691026,01,2023-10-30_14h36.57.950,LDD2,2022.2.4,59.94995376043702,
LDD2_Pics/NR_34U.jpg,34,near,right,up,down,1,8,0,8,0,0,39,39,15,down,1,0.8873070001136512,01,2023-10-30_14h36.57.950,LDD2,2022.2.4,59.94995376043702,
LDD2_Pics/NL_18U.jpg,18,near,left,up,up,1,8,0,8,0,0,40,40,0,up,1,0.9838564998935908,01,2023-10-30_14h36.57.950,LDD2,2022.2.4,59.94995376043702,
LDD2_Pics/NR_22U.jpg,22,near,right,up,up,1,8,0,8,0,0,41,41,13,up,1,0.6605386999435723,01,2023-10-30_14h36.57.950,LDD2,2022.2.4,59.94995376043702,
LDD2_Pics/FL_38U.jpg,38,far,left,up,down,1,8,0,8,0,0,42,42,28,down,1,0.6302097998559475,01,2023-10-30_14h36.57.950,LDD2,2022.2.4,59.94995376043702,
LDD2_Pics/FL_34D.jpg,34,far,left,down,up,1,8,0,8,0,0,43,43,33,up,1,0.7052915999665856,01,2023-10-30_14h36.57.950,LDD2,2022.2.4,59.94995376043702,
LDD2_Pics/NL_18D.jpg,18,near,left,down,down,1,8,0,8,0,0,44,44,6,down,1,0.5845872999634594,01,2023-10-30_14h36.57.950,LDD2,2022.2.4,59.94995376043702,
LDD2_Pics/FR_42D.jpg,42,far,right,down,up,1,8,0,8,0,0,45,45,47,up,1,0.6208871998824179,01,2023-10-30_14h36.57.950,LDD2,2022.2.4,59.94995376043702,
LDD2_Pics/NL_26D.jpg,26,near,left,down,down,1,8,0,8,0,0,46,46,8,down,1,0.8726067000534385,01,2023-10-30_14h36.57.950,LDD2,2022.2.4,59.94995376043702,
LDD2_Pics/NR_22D.jpg,22,near,right,down,down,1,8,0,8,0,0,47,47,19,down,1,0.6809347998350859,01,2023-10-30_14h36.57.950,LDD2,2022.2.4,59.94995376043702,
LDD2_Pics/FL_42D.jpg,42,far,left,down,up,1,9,0,9,0,0,0,0,35,up,1,0.9045807998627424,01,2023-10-30_14h36.57.950,LDD2,2022.2.4,59.94995376043702,
LDD2_Pics/NR_34D.jpg,34,near,right,down,up,1,9,0,9,0,0,1,1,21,up,1,0.6239964999258518,01,2023-10-30_14h36.57.950,LDD2,2022.2.4,59.94995376043702,
LDD2_Pics/NR_38D.jpg,38,near,right,down,up,1,9,0,9,0,0,2,2,22,up,1,0.4748054000083357,01,2023-10-30_14h36.57.950,LDD2,2022.2.4,59.94995376043702,
LDD2_Pics/FL_38U.jpg,38,far,left,up,down,1,9,0,9,0,0,3,3,28,down,1,0.6601402000524104,01,2023-10-30_14h36.57.950,LDD2,2022.2.4,59.94995376043702,
LDD2_Pics/FL_26D.jpg,26,far,left,down,down,1,9,0,9,0,0,4,4,32,down,1,0.549442799994722,01,2023-10-30_14h36.57.950,LDD2,2022.2.4,59.94995376043702,
LDD2_Pics/NL_18D.jpg,18,near,left,down,down,1,9,0,9,0,0,5,5,6,down,1,0.5566259999759495,01,2023-10-30_14h36.57.950,LDD2,2022.2.4,59.94995376043702,
LDD2_Pics/FR_38U.jpg,38,far,right,up,down,1,9,0,9,0,0,6,6,40,down,1,0.8103384000714868,01,2023-10-30_14h36.57.950,LDD2,2022.2.4,59.94995376043702,
LDD2_Pics/FR_42U.jpg,42,far,right,up,down,1,9,0,9,0,0,7,7,41,down,1,0.6452566001098603,01,2023-10-30_14h36.57.950,LDD2,2022.2.4,59.94995376043702,
LDD2_Pics/NL_34U.jpg,34,near,left,up,down,1,9,0,9,0,0,8,8,3,down,1,1.0404626000672579,01,2023-10-30_14h36.57.950,LDD2,2022.2.4,59.94995376043702,
LDD2_Pics/NL_22U.jpg,22,near,left,up,up,1,9,0,9,0,0,9,9,1,up,1,0.7941065998747945,01,2023-10-30_14h36.57.950,LDD2,2022.2.4,59.94995376043702,
LDD2_Pics/NR_22U.jpg,22,near,right,up,up,1,9,0,9,0,0,10,10,13,up,1,0.5113931999076158,01,2023-10-30_14h36.57.950,LDD2,2022.2.4,59.94995376043702,
LDD2_Pics/NL_26D.jpg,26,near,left,down,down,1,9,0,9,0,0,11,11,8,down,1,0.6374758000019938,01,2023-10-30_14h36.57.950,LDD2,2022.2.4,59.94995376043702,
LDD2_Pics/NR_26U.jpg,26,near,right,up,up,1,9,0,9,0,0,12,12,14,up,1,0.6479684000369161,01,2023-10-30_14h36.57.950,LDD2,2022.2.4,59.94995376043702,
LDD2_Pics/FR_26D.jpg,26,far,right,down,down,1,9,0,9,0,0,13,13,44,down,1,0.6266194998752326,01,2023-10-30_14h36.57.950,LDD2,2022.2.4,59.94995376043702,
LDD2_Pics/FR_18D.jpg,18,far,right,down,down,1,9,0,9,0,0,14,14,42,down,1,0.5416149999946356,01,2023-10-30_14h36.57.950,LDD2,2022.2.4,59.94995376043702,
LDD2_Pics/NL_26U.jpg,26,near,left,up,up,1,9,0,9,0,0,15,15,2,up,1,0.6209725998342037,01,2023-10-30_14h36.57.950,LDD2,2022.2.4,59.94995376043702,
LDD2_Pics/FL_42U.jpg,42,far,left,up,down,1,9,0,9,0,0,16,16,29,down,1,0.5684547999408096,01,2023-10-30_14h36.57.950,LDD2,2022.2.4,59.94995376043702,
LDD2_Pics/FR_34D.jpg,34,far,right,down,up,1,9,0,9,0,0,17,17,45,up,1,0.8043426000513136,01,2023-10-30_14h36.57.950,LDD2,2022.2.4,59.94995376043702,
LDD2_Pics/FR_22D.jpg,22,far,right,down,down,1,9,0,9,0,0,18,18,43,down,1,0.60839349986054,01,2023-10-30_14h36.57.950,LDD2,2022.2.4,59.94995376043702,
LDD2_Pics/NL_22D.jpg,22,near,left,down,down,1,9,0,9,0,0,19,19,7,down,1,0.6121485000476241,01,2023-10-30_14h36.57.950,LDD2,2022.2.4,59.94995376043702,
LDD2_Pics/FR_38D.jpg,38,far,right,down,up,1,9,0,9,0,0,20,20,46,up,1,0.5515539997722954,01,2023-10-30_14h36.57.950,LDD2,2022.2.4,59.94995376043702,
LDD2_Pics/NR_38U.jpg,38,near,right,up,down,1,9,0,9,0,0,21,21,16,down,1,0.6773841001559049,01,2023-10-30_14h36.57.950,LDD2,2022.2.4,59.94995376043702,
LDD2_Pics/FR_42D.jpg,42,far,right,down,up,1,9,0,9,0,0,22,22,47,up,1,0.5905412000138313,01,2023-10-30_14h36.57.950,LDD2,2022.2.4,59.94995376043702,
LDD2_Pics/NR_18U.jpg,18,near,right,up,up,1,9,0,9,0,0,23,23,12,up,1,0.5873510001692921,01,2023-10-30_14h36.57.950,LDD2,2022.2.4,59.94995376043702,
LDD2_Pics/NR_26D.jpg,26,near,right,down,down,1,9,0,9,0,0,24,24,20,down,1,1.3513535999227315,01,2023-10-30_14h36.57.950,LDD2,2022.2.4,59.94995376043702,
LDD2_Pics/FR_18U.jpg,18,far,right,up,up,1,9,0,9,0,0,25,25,36,up,1,0.644083300139755,01,2023-10-30_14h36.57.950,LDD2,2022.2.4,59.94995376043702,
LDD2_Pics/FR_34U.jpg,34,far,right,up,down,1,9,0,9,0,0,26,26,39,up,0,0.4303890001028776,01,2023-10-30_14h36.57.950,LDD2,2022.2.4,59.94995376043702,
LDD2_Pics/FL_22D.jpg,22,far,left,down,down,1,9,0,9,0,0,27,27,31,down,1,0.7214754999149591,01,2023-10-30_14h36.57.950,LDD2,2022.2.4,59.94995376043702,
LDD2_Pics/FL_38D.jpg,38,far,left,down,up,1,9,0,9,0,0,28,28,34,up,1,0.680462600197643,01,2023-10-30_14h36.57.950,LDD2,2022.2.4,59.94995376043702,
LDD2_Pics/FL_22U.jpg,22,far,left,up,up,1,9,0,9,0,0,29,29,25,up,1,0.7777301000896841,01,2023-10-30_14h36.57.950,LDD2,2022.2.4,59.94995376043702,
LDD2_Pics/FL_26U.jpg,26,far,left,up,up,1,9,0,9,0,0,30,30,26,up,1,0.541674799984321,01,2023-10-30_14h36.57.950,LDD2,2022.2.4,59.94995376043702,
LDD2_Pics/FR_22U.jpg,22,far,right,up,up,1,9,0,9,0,0,31,31,37,up,1,0.5729801999405026,01,2023-10-30_14h36.57.950,LDD2,2022.2.4,59.94995376043702,
LDD2_Pics/NR_42D.jpg,42,near,right,down,up,1,9,0,9,0,0,32,32,23,up,1,0.729682199889794,01,2023-10-30_14h36.57.950,LDD2,2022.2.4,59.94995376043702,
LDD2_Pics/NR_22D.jpg,22,near,right,down,down,1,9,0,9,0,0,33,33,19,down,1,0.6964492001570761,01,2023-10-30_14h36.57.950,LDD2,2022.2.4,59.94995376043702,
LDD2_Pics/NR_42U.jpg,42,near,right,up,down,1,9,0,9,0,0,34,34,17,down,1,0.5294486999046057,01,2023-10-30_14h36.57.950,LDD2,2022.2.4,59.94995376043702,
LDD2_Pics/NL_42D.jpg,42,near,left,down,up,1,9,0,9,0,0,35,35,11,up,1,0.7283255001530051,01,2023-10-30_14h36.57.950,LDD2,2022.2.4,59.94995376043702,
LDD2_Pics/FL_34D.jpg,34,far,left,down,up,1,9,0,9,0,0,36,36,33,up,1,0.5827434998936951,01,2023-10-30_14h36.57.950,LDD2,2022.2.4,59.94995376043702,
LDD2_Pics/NR_18D.jpg,18,near,right,down,down,1,9,0,9,0,0,37,37,18,down,1,0.6198605999816209,01,2023-10-30_14h36.57.950,LDD2,2022.2.4,59.94995376043702,
LDD2_Pics/NL_18U.jpg,18,near,left,up,up,1,9,0,9,0,0,38,38,0,up,1,0.599164999788627,01,2023-10-30_14h36.57.950,LDD2,2022.2.4,59.94995376043702,
LDD2_Pics/FL_18U.jpg,18,far,left,up,up,1,9,0,9,0,0,39,39,24,up,1,0.548078800085932,01,2023-10-30_14h36.57.950,LDD2,2022.2.4,59.94995376043702,
LDD2_Pics/FR_26U.jpg,26,far,right,up,up,1,9,0,9,0,0,40,40,38,up,1,0.5776869999244809,01,2023-10-30_14h36.57.950,LDD2,2022.2.4,59.94995376043702,
LDD2_Pics/FL_18D.jpg,18,far,left,down,down,1,9,0,9,0,0,41,41,30,down,1,0.6717739999294281,01,2023-10-30_14h36.57.950,LDD2,2022.2.4,59.94995376043702,
LDD2_Pics/NL_38U.jpg,38,near,left,up,down,1,9,0,9,0,0,42,42,4,down,1,0.6722228999715298,01,2023-10-30_14h36.57.950,LDD2,2022.2.4,59.94995376043702,
LDD2_Pics/NL_38D.jpg,38,near,left,down,up,1,9,0,9,0,0,43,43,10,up,1,0.6414610999636352,01,2023-10-30_14h36.57.950,LDD2,2022.2.4,59.94995376043702,
LDD2_Pics/FL_34U.jpg,34,far,left,up,down,1,9,0,9,0,0,44,44,27,down,1,0.6761133999098092,01,2023-10-30_14h36.57.950,LDD2,2022.2.4,59.94995376043702,
LDD2_Pics/NL_42U.jpg,42,near,left,up,down,1,9,0,9,0,0,45,45,5,down,1,0.517594400094822,01,2023-10-30_14h36.57.950,LDD2,2022.2.4,59.94995376043702,
LDD2_Pics/NL_34D.jpg,34,near,left,down,up,1,9,0,9,0,0,46,46,9,down,0,0.4920210998971015,01,2023-10-30_14h36.57.950,LDD2,2022.2.4,59.94995376043702,
LDD2_Pics/NR_34U.jpg,34,near,right,up,down,1,9,0,9,0,0,47,47,15,down,1,0.732015399960801,01,2023-10-30_14h36.57.950,LDD2,2022.2.4,59.94995376043702,
LDD2_Pics/NR_18U.jpg,18,near,right,up,up,1,10,0,10,0,0,0,0,12,up,1,0.7383848000317812,01,2023-10-30_14h36.57.950,LDD2,2022.2.4,59.94995376043702,
LDD2_Pics/FL_38D.jpg,38,far,left,down,up,1,10,0,10,0,0,1,1,34,up,1,0.7294083999004215,01,2023-10-30_14h36.57.950,LDD2,2022.2.4,59.94995376043702,
LDD2_Pics/NL_26U.jpg,26,near,left,up,up,1,10,0,10,0,0,2,2,2,up,1,0.6800997001118958,01,2023-10-30_14h36.57.950,LDD2,2022.2.4,59.94995376043702,
LDD2_Pics/NL_26D.jpg,26,near,left,down,down,1,10,0,10,0,0,3,3,8,down,1,0.9531692999880761,01,2023-10-30_14h36.57.950,LDD2,2022.2.4,59.94995376043702,
LDD2_Pics/NR_38D.jpg,38,near,right,down,up,1,10,0,10,0,0,4,4,22,up,1,0.6381550000514835,01,2023-10-30_14h36.57.950,LDD2,2022.2.4,59.94995376043702,
LDD2_Pics/FR_38U.jpg,38,far,right,up,down,1,10,0,10,0,0,5,5,40,down,1,0.7364211999811232,01,2023-10-30_14h36.57.950,LDD2,2022.2.4,59.94995376043702,
LDD2_Pics/FR_18D.jpg,18,far,right,down,down,1,10,0,10,0,0,6,6,42,down,1,0.5430900000501424,01,2023-10-30_14h36.57.950,LDD2,2022.2.4,59.94995376043702,
LDD2_Pics/NL_34D.jpg,34,near,left,down,up,1,10,0,10,0,0,7,7,9,up,1,1.0933203999884427,01,2023-10-30_14h36.57.950,LDD2,2022.2.4,59.94995376043702,
LDD2_Pics/NL_38U.jpg,38,near,left,up,down,1,10,0,10,0,0,8,8,4,down,1,0.7334191000554711,01,2023-10-30_14h36.57.950,LDD2,2022.2.4,59.94995376043702,
LDD2_Pics/FR_34U.jpg,34,far,right,up,down,1,10,0,10,0,0,9,9,39,down,1,0.7087773000821471,01,2023-10-30_14h36.57.950,LDD2,2022.2.4,59.94995376043702,
LDD2_Pics/FR_22D.jpg,22,far,right,down,down,1,10,0,10,0,0,10,10,43,down,1,0.4444170999340713,01,2023-10-30_14h36.57.950,LDD2,2022.2.4,59.94995376043702,
LDD2_Pics/NL_18U.jpg,18,near,left,up,up,1,10,0,10,0,0,11,11,0,up,1,0.8784038999583572,01,2023-10-30_14h36.57.950,LDD2,2022.2.4,59.94995376043702,
LDD2_Pics/NR_26U.jpg,26,near,right,up,up,1,10,0,10,0,0,12,12,14,up,1,0.5682947000022978,01,2023-10-30_14h36.57.950,LDD2,2022.2.4,59.94995376043702,
LDD2_Pics/NR_42D.jpg,42,near,right,down,up,1,10,0,10,0,0,13,13,23,up,1,0.5724246997851878,01,2023-10-30_14h36.57.950,LDD2,2022.2.4,59.94995376043702,
LDD2_Pics/NR_18D.jpg,18,near,right,down,down,1,10,0,10,0,0,14,14,18,down,1,0.5940241999924183,01,2023-10-30_14h36.57.950,LDD2,2022.2.4,59.94995376043702,
LDD2_Pics/NL_38D.jpg,38,near,left,down,up,1,10,0,10,0,0,15,15,10,up,1,0.7424300001002848,01,2023-10-30_14h36.57.950,LDD2,2022.2.4,59.94995376043702,
LDD2_Pics/FR_22U.jpg,22,far,right,up,up,1,10,0,10,0,0,16,16,37,up,1,0.47696360014379025,01,2023-10-30_14h36.57.950,LDD2,2022.2.4,59.94995376043702,
LDD2_Pics/FL_22U.jpg,22,far,left,up,up,1,10,0,10,0,0,17,17,25,up,1,0.5821257999632508,01,2023-10-30_14h36.57.950,LDD2,2022.2.4,59.94995376043702,
LDD2_Pics/NR_22U.jpg,22,near,right,up,up,1,10,0,10,0,0,18,18,13,up,1,0.4983463000971824,01,2023-10-30_14h36.57.950,LDD2,2022.2.4,59.94995376043702,
LDD2_Pics/NR_22D.jpg,22,near,right,down,down,1,10,0,10,0,0,19,19,19,down,1,0.8189801999833435,01,2023-10-30_14h36.57.950,LDD2,2022.2.4,59.94995376043702,
LDD2_Pics/FL_34U.jpg,34,far,left,up,down,1,10,0,10,0,0,20,20,27,down,1,1.1661861001048237,01,2023-10-30_14h36.57.950,LDD2,2022.2.4,59.94995376043702,
LDD2_Pics/NR_38U.jpg,38,near,right,up,down,1,10,0,10,0,0,21,21,16,down,1,0.714924099855125,01,2023-10-30_14h36.57.950,LDD2,2022.2.4,59.94995376043702,
LDD2_Pics/FL_18U.jpg,18,far,left,up,up,1,10,0,10,0,0,22,22,24,up,1,0.7872977000661194,01,2023-10-30_14h36.57.950,LDD2,2022.2.4,59.94995376043702,
LDD2_Pics/FL_26D.jpg,26,far,left,down,down,1,10,0,10,0,0,23,23,32,down,1,0.7352070999331772,01,2023-10-30_14h36.57.950,LDD2,2022.2.4,59.94995376043702,
LDD2_Pics/NL_34U.jpg,34,near,left,up,down,1,10,0,10,0,0,24,24,3,down,1,0.9663949001114815,01,2023-10-30_14h36.57.950,LDD2,2022.2.4,59.94995376043702,
LDD2_Pics/NR_34U.jpg,34,near,right,up,down,1,10,0,10,0,0,25,25,15,down,1,0.970675399992615,01,2023-10-30_14h36.57.950,LDD2,2022.2.4,59.94995376043702,
LDD2_Pics/NL_42D.jpg,42,near,left,down,up,1,10,0,10,0,0,26,26,11,up,1,0.864619400119409,01,2023-10-30_14h36.57.950,LDD2,2022.2.4,59.94995376043702,
LDD2_Pics/FL_22D.jpg,22,far,left,down,down,1,10,0,10,0,0,27,27,31,down,1,1.0737721000332385,01,2023-10-30_14h36.57.950,LDD2,2022.2.4,59.94995376043702,
LDD2_Pics/FL_18D.jpg,18,far,left,down,down,1,10,0,10,0,0,28,28,30,down,1,0.5783023999538273,01,2023-10-30_14h36.57.950,LDD2,2022.2.4,59.94995376043702,
LDD2_Pics/NL_22D.jpg,22,near,left,down,down,1,10,0,10,0,0,29,29,7,down,1,0.5436619999818504,01,2023-10-30_14h36.57.950,LDD2,2022.2.4,59.94995376043702,
LDD2_Pics/FL_38U.jpg,38,far,left,up,down,1,10,0,10,0,0,30,30,28,down,1,0.5422046000603586,01,2023-10-30_14h36.57.950,LDD2,2022.2.4,59.94995376043702,
LDD2_Pics/FR_38D.jpg,38,far,right,down,up,1,10,0,10,0,0,31,31,46,up,1,0.804099100176245,01,2023-10-30_14h36.57.950,LDD2,2022.2.4,59.94995376043702,
LDD2_Pics/FR_26U.jpg,26,far,right,up,up,1,10,0,10,0,0,32,32,38,up,1,0.8882557000033557,01,2023-10-30_14h36.57.950,LDD2,2022.2.4,59.94995376043702,
LDD2_Pics/FL_42D.jpg,42,far,left,down,up,1,10,0,10,0,0,33,33,35,up,1,0.7039595001842827,01,2023-10-30_14h36.57.950,LDD2,2022.2.4,59.94995376043702,
LDD2_Pics/NL_18D.jpg,18,near,left,down,down,1,10,0,10,0,0,34,34,6,down,1,0.6157209000084549,01,2023-10-30_14h36.57.950,LDD2,2022.2.4,59.94995376043702,
LDD2_Pics/FR_34D.jpg,34,far,right,down,up,1,10,0,10,0,0,35,35,45,up,1,0.979564500041306,01,2023-10-30_14h36.57.950,LDD2,2022.2.4,59.94995376043702,
LDD2_Pics/FR_42D.jpg,42,far,right,down,up,1,10,0,10,0,0,36,36,47,up,1,0.7036669000517577,01,2023-10-30_14h36.57.950,LDD2,2022.2.4,59.94995376043702,
LDD2_Pics/NR_42U.jpg,42,near,right,up,down,1,10,0,10,0,0,37,37,17,down,1,0.6475084000267088,01,2023-10-30_14h36.57.950,LDD2,2022.2.4,59.94995376043702,
LDD2_Pics/NR_34D.jpg,34,near,right,down,up,1,10,0,10,0,0,38,38,21,up,1,1.442645400064066,01,2023-10-30_14h36.57.950,LDD2,2022.2.4,59.94995376043702,
LDD2_Pics/FR_42U.jpg,42,far,right,up,down,1,10,0,10,0,0,39,39,41,down,1,0.6755349000450224,01,2023-10-30_14h36.57.950,LDD2,2022.2.4,59.94995376043702,
LDD2_Pics/NL_22U.jpg,22,near,left,up,up,1,10,0,10,0,0,40,40,1,up,1,0.9163371999748051,01,2023-10-30_14h36.57.950,LDD2,2022.2.4,59.94995376043702,
LDD2_Pics/FR_26D.jpg,26,far,right,down,down,1,10,0,10,0,0,41,41,44,down,1,0.9079682999290526,01,2023-10-30_14h36.57.950,LDD2,2022.2.4,59.94995376043702,
LDD2_Pics/FL_42U.jpg,42,far,left,up,down,1,10,0,10,0,0,42,42,29,down,1,0.6679032000247389,01,2023-10-30_14h36.57.950,LDD2,2022.2.4,59.94995376043702,
LDD2_Pics/FR_18U.jpg,18,far,right,up,up,1,10,0,10,0,0,43,43,36,up,1,0.7568812998943031,01,2023-10-30_14h36.57.950,LDD2,2022.2.4,59.94995376043702,
LDD2_Pics/NL_42U.jpg,42,near,left,up,down,1,10,0,10,0,0,44,44,5,down,1,0.6189508999232203,01,2023-10-30_14h36.57.950,LDD2,2022.2.4,59.94995376043702,
LDD2_Pics/NR_26D.jpg,26,near,right,down,down,1,10,0,10,0,0,45,45,20,down,1,0.604960999917239,01,2023-10-30_14h36.57.950,LDD2,2022.2.4,59.94995376043702,
LDD2_Pics/FL_26U.jpg,26,far,left,up,up,1,10,0,10,0,0,46,46,26,up,1,0.8094061000738293,01,2023-10-30_14h36.57.950,LDD2,2022.2.4,59.94995376043702,
LDD2_Pics/FL_34D.jpg,34,far,left,down,up,1,10,0,10,0,0,47,47,33,up,1,1.340596599970013,01,2023-10-30_14h36.57.950,LDD2,2022.2.4,59.94995376043702,
LDD2_Pics/FR_38D.jpg,38,far,right,down,up,1,11,0,11,0,0,0,0,46,up,1,0.78556720004417,01,2023-10-30_14h36.57.950,LDD2,2022.2.4,59.94995376043702,
LDD2_Pics/FL_38U.jpg,38,far,left,up,down,1,11,0,11,0,0,1,1,28,down,1,0.6774901000317186,01,2023-10-30_14h36.57.950,LDD2,2022.2.4,59.94995376043702,
LDD2_Pics/FL_34U.jpg,34,far,left,up,down,1,11,0,11,0,0,2,2,27,down,1,0.5434538999106735,01,2023-10-30_14h36.57.950,LDD2,2022.2.4,59.94995376043702,
LDD2_Pics/NR_22U.jpg,22,near,right,up,up,1,11,0,11,0,0,3,3,13,up,1,0.742218199884519,01,2023-10-30_14h36.57.950,LDD2,2022.2.4,59.94995376043702,
LDD2_Pics/NL_22U.jpg,22,near,left,up,up,1,11,0,11,0,0,4,4,1,up,1,0.6121272000018507,01,2023-10-30_14h36.57.950,LDD2,2022.2.4,59.94995376043702,
LDD2_Pics/FR_26D.jpg,26,far,right,down,down,1,11,0,11,0,0,5,5,44,down,1,0.7041148999705911,01,2023-10-30_14h36.57.950,LDD2,2022.2.4,59.94995376043702,
LDD2_Pics/NL_22D.jpg,22,near,left,down,down,1,11,0,11,0,0,6,6,7,down,1,0.6483344999141991,01,2023-10-30_14h36.57.950,LDD2,2022.2.4,59.94995376043702,
LDD2_Pics/FL_18D.jpg,18,far,left,down,down,1,11,0,11,0,0,7,7,30,down,1,0.657803799957037,01,2023-10-30_14h36.57.950,LDD2,2022.2.4,59.94995376043702,
LDD2_Pics/NL_18D.jpg,18,near,left,down,down,1,11,0,11,0,0,8,8,6,down,1,0.7234171000309289,01,2023-10-30_14h36.57.950,LDD2,2022.2.4,59.94995376043702,
LDD2_Pics/FL_22U.jpg,22,far,left,up,up,1,11,0,11,0,0,9,9,25,up,1,0.6582853998988867,01,2023-10-30_14h36.57.950,LDD2,2022.2.4,59.94995376043702,
LDD2_Pics/NL_26D.jpg,26,near,left,down,down,1,11,0,11,0,0,10,10,8,down,1,1.4922452999744564,01,2023-10-30_14h36.57.950,LDD2,2022.2.4,59.94995376043702,
LDD2_Pics/FR_18D.jpg,18,far,right,down,down,1,11,0,11,0,0,11,11,42,down,1,0.6841097997967154,01,2023-10-30_14h36.57.950,LDD2,2022.2.4,59.94995376043702,
LDD2_Pics/NL_26U.jpg,26,near,left,up,up,1,11,0,11,0,0,12,12,2,up,1,0.851586600067094,01,2023-10-30_14h36.57.950,LDD2,2022.2.4,59.94995376043702,
LDD2_Pics/NR_22D.jpg,22,near,right,down,down,1,11,0,11,0,0,13,13,19,down,1,0.6855476999189705,01,2023-10-30_14h36.57.950,LDD2,2022.2.4,59.94995376043702,
LDD2_Pics/NR_38D.jpg,38,near,right,down,up,1,11,0,11,0,0,14,14,22,up,1,0.7096660998649895,01,2023-10-30_14h36.57.950,LDD2,2022.2.4,59.94995376043702,
LDD2_Pics/FL_26U.jpg,26,far,left,up,up,1,11,0,11,0,0,15,15,26,up,1,0.6532506002113223,01,2023-10-30_14h36.57.950,LDD2,2022.2.4,59.94995376043702,
LDD2_Pics/FR_34U.jpg,34,far,right,up,down,1,11,0,11,0,0,16,16,39,down,1,0.7186186001636088,01,2023-10-30_14h36.57.950,LDD2,2022.2.4,59.94995376043702,
LDD2_Pics/NR_42D.jpg,42,near,right,down,up,1,11,0,11,0,0,17,17,23,up,1,0.6538525999058038,01,2023-10-30_14h36.57.950,LDD2,2022.2.4,59.94995376043702,
LDD2_Pics/NR_18D.jpg,18,near,right,down,down,1,11,0,11,0,0,18,18,18,down,1,0.5683792000636458,01,2023-10-30_14h36.57.950,LDD2,2022.2.4,59.94995376043702,
LDD2_Pics/NL_38D.jpg,38,near,left,down,up,1,11,0,11,0,0,19,19,10,up,1,0.604540599975735,01,2023-10-30_14h36.57.950,LDD2,2022.2.4,59.94995376043702,
LDD2_Pics/FL_38D.jpg,38,far,left,down,up,1,11,0,11,0,0,20,20,34,up,1,0.5445612999610603,01,2023-10-30_14h36.57.950,LDD2,2022.2.4,59.94995376043702,
LDD2_Pics/FL_26D.jpg,26,far,left,down,down,1,11,0,11,0,0,21,21,32,down,1,0.9673631000332534,01,2023-10-30_14h36.57.950,LDD2,2022.2.4,59.94995376043702,
LDD2_Pics/NR_26U.jpg,26,near,right,up,up,1,11,0,11,0,0,22,22,14,up,1,1.5246568000875413,01,2023-10-30_14h36.57.950,LDD2,2022.2.4,59.94995376043702,
LDD2_Pics/FR_42U.jpg,42,far,right,up,down,1,11,0,11,0,0,23,23,41,down,1,0.8022829000838101,01,2023-10-30_14h36.57.950,LDD2,2022.2.4,59.94995376043702,
LDD2_Pics/NR_34D.jpg,34,near,right,down,up,1,11,0,11,0,0,24,24,21,up,1,0.790660799946636,01,2023-10-30_14h36.57.950,LDD2,2022.2.4,59.94995376043702,
LDD2_Pics/NL_42U.jpg,42,near,left,up,down,1,11,0,11,0,0,25,25,5,down,1,0.6110537000931799,01,2023-10-30_14h36.57.950,LDD2,2022.2.4,59.94995376043702,
LDD2_Pics/NL_34D.jpg,34,near,left,down,up,1,11,0,11,0,0,26,26,9,up,1,0.8459431000519544,01,2023-10-30_14h36.57.950,LDD2,2022.2.4,59.94995376043702,
LDD2_Pics/NR_26D.jpg,26,near,right,down,down,1,11,0,11,0,0,27,27,20,down,1,0.7297794998157769,01,2023-10-30_14h36.57.950,LDD2,2022.2.4,59.94995376043702,
LDD2_Pics/NR_38U.jpg,38,near,right,up,down,1,11,0,11,0,0,28,28,16,down,1,0.5514498001430184,01,2023-10-30_14h36.57.950,LDD2,2022.2.4,59.94995376043702,
LDD2_Pics/FR_18U.jpg,18,far,right,up,up,1,11,0,11,0,0,29,29,36,up,1,0.8385586000513285,01,2023-10-30_14h36.57.950,LDD2,2022.2.4,59.94995376043702,
LDD2_Pics/NR_42U.jpg,42,near,right,up,down,1,11,0,11,0,0,30,30,17,down,1,0.5915502000134438,01,2023-10-30_14h36.57.950,LDD2,2022.2.4,59.94995376043702,
LDD2_Pics/FL_34D.jpg,34,far,left,down,up,1,11,0,11,0,0,31,31,33,up,1,0.6367043999489397,01,2023-10-30_14h36.57.950,LDD2,2022.2.4,59.94995376043702,
LDD2_Pics/FR_42D.jpg,42,far,right,down,up,1,11,0,11,0,0,32,32,47,up,1,0.5820643999613822,01,2023-10-30_14h36.57.950,LDD2,2022.2.4,59.94995376043702,
LDD2_Pics/FL_42U.jpg,42,far,left,up,down,1,11,0,11,0,0,33,33,29,down,1,0.724570200080052,01,2023-10-30_14h36.57.950,LDD2,2022.2.4,59.94995376043702,
LDD2_Pics/NR_18U.jpg,18,near,right,up,up,1,11,0,11,0,0,34,34,12,up,1,0.9072220001835376,01,2023-10-30_14h36.57.950,LDD2,2022.2.4,59.94995376043702,
LDD2_Pics/FR_22D.jpg,22,far,right,down,down,1,11,0,11,0,0,35,35,43,down,1,0.698486200068146,01,2023-10-30_14h36.57.950,LDD2,2022.2.4,59.94995376043702,
LDD2_Pics/NL_38U.jpg,38,near,left,up,down,1,11,0,11,0,0,36,36,4,down,1,0.6817421999294311,01,2023-10-30_14h36.57.950,LDD2,2022.2.4,59.94995376043702,
LDD2_Pics/FL_22D.jpg,22,far,left,down,down,1,11,0,11,0,0,37,37,31,down,1,0.5789882999379188,01,2023-10-30_14h36.57.950,LDD2,2022.2.4,59.94995376043702,
LDD2_Pics/NL_34U.jpg,34,near,left,up,down,1,11,0,11,0,0,38,38,3,down,1,0.7041927999816835,01,2023-10-30_14h36.57.950,LDD2,2022.2.4,59.94995376043702,
LDD2_Pics/FR_34D.jpg,34,far,right,down,up,1,11,0,11,0,0,39,39,45,up,1,0.9118392998352647,01,2023-10-30_14h36.57.950,LDD2,2022.2.4,59.94995376043702,
LDD2_Pics/NL_42D.jpg,42,near,left,down,up,1,11,0,11,0,0,40,40,11,up,1,0.6160223998595029,01,2023-10-30_14h36.57.950,LDD2,2022.2.4,59.94995376043702,
LDD2_Pics/NL_18U.jpg,18,near,left,up,up,1,11,0,11,0,0,41,41,0,up,1,0.5071488998364657,01,2023-10-30_14h36.57.950,LDD2,2022.2.4,59.94995376043702,
LDD2_Pics/FL_18U.jpg,18,far,left,up,up,1,11,0,11,0,0,42,42,24,up,1,0.4985215999186039,01,2023-10-30_14h36.57.950,LDD2,2022.2.4,59.94995376043702,
LDD2_Pics/NR_34U.jpg,34,near,right,up,down,1,11,0,11,0,0,43,43,15,down,1,0.7402524999342859,01,2023-10-30_14h36.57.950,LDD2,2022.2.4,59.94995376043702,
LDD2_Pics/FR_22U.jpg,22,far,right,up,up,1,11,0,11,0,0,44,44,37,up,1,0.6582938998471946,01,2023-10-30_14h36.57.950,LDD2,2022.2.4,59.94995376043702,
LDD2_Pics/FL_42D.jpg,42,far,left,down,up,1,11,0,11,0,0,45,45,35,up,1,0.6529162998776883,01,2023-10-30_14h36.57.950,LDD2,2022.2.4,59.94995376043702,
LDD2_Pics/FR_26U.jpg,26,far,right,up,up,1,11,0,11,0,0,46,46,38,up,1,0.6047229999676347,01,2023-10-30_14h36.57.950,LDD2,2022.2.4,59.94995376043702,
LDD2_Pics/FR_38U.jpg,38,far,right,up,down,1,11,0,11,0,0,47,47,40,down,1,0.7125446000136435,01,2023-10-30_14h36.57.950,LDD2,2022.2.4,59.94995376043702,
LDD2_Pics/FL_38D.jpg,38,far,left,down,up,1,12,0,12,0,0,0,0,34,up,1,0.8066930000204593,01,2023-10-30_14h36.57.950,LDD2,2022.2.4,59.94995376043702,
LDD2_Pics/NR_34D.jpg,34,near,right,down,up,1,12,0,12,0,0,1,1,21,up,1,0.6974851998966187,01,2023-10-30_14h36.57.950,LDD2,2022.2.4,59.94995376043702,
LDD2_Pics/NL_18D.jpg,18,near,left,down,down,1,12,0,12,0,0,2,2,6,down,1,0.7707585000898689,01,2023-10-30_14h36.57.950,LDD2,2022.2.4,59.94995376043702,
LDD2_Pics/NR_26D.jpg,26,near,right,down,down,1,12,0,12,0,0,3,3,20,down,1,0.7907968999352306,01,2023-10-30_14h36.57.950,LDD2,2022.2.4,59.94995376043702,
LDD2_Pics/FL_22D.jpg,22,far,left,down,down,1,12,0,12,0,0,4,4,31,down,1,0.604073700029403,01,2023-10-30_14h36.57.950,LDD2,2022.2.4,59.94995376043702,
LDD2_Pics/NR_38U.jpg,38,near,right,up,down,1,12,0,12,0,0,5,5,16,down,1,0.8324659999925643,01,2023-10-30_14h36.57.950,LDD2,2022.2.4,59.94995376043702,
LDD2_Pics/NL_26U.jpg,26,near,left,up,up,1,12,0,12,0,0,6,6,2,up,1,0.8256566999480128,01,2023-10-30_14h36.57.950,LDD2,2022.2.4,59.94995376043702,
LDD2_Pics/FL_26D.jpg,26,far,left,down,down,1,12,0,12,0,0,7,7,32,down,1,0.9736705999821424,01,2023-10-30_14h36.57.950,LDD2,2022.2.4,59.94995376043702,
LDD2_Pics/NR_26U.jpg,26,near,right,up,up,1,12,0,12,0,0,8,8,14,up,1,0.8895574000198394,01,2023-10-30_14h36.57.950,LDD2,2022.2.4,59.94995376043702,
LDD2_Pics/NR_34U.jpg,34,near,right,up,down,1,12,0,12,0,0,9,9,15,down,1,1.2189939999952912,01,2023-10-30_14h36.57.950,LDD2,2022.2.4,59.94995376043702,
LDD2_Pics/NR_38D.jpg,38,near,right,down,up,1,12,0,12,0,0,10,10,22,up,1,0.6366967000067234,01,2023-10-30_14h36.57.950,LDD2,2022.2.4,59.94995376043702,
LDD2_Pics/NR_22U.jpg,22,near,right,up,up,1,12,0,12,0,0,11,11,13,up,1,0.6638881000690162,01,2023-10-30_14h36.57.950,LDD2,2022.2.4,59.94995376043702,
LDD2_Pics/FR_34U.jpg,34,far,right,up,down,1,12,0,12,0,0,12,12,39,up,0,0.5844694001134485,01,2023-10-30_14h36.57.950,LDD2,2022.2.4,59.94995376043702,
LDD2_Pics/NL_38U.jpg,38,near,left,up,down,1,12,0,12,0,0,13,13,4,down,1,0.8374311001971364,01,2023-10-30_14h36.57.950,LDD2,2022.2.4,59.94995376043702,
LDD2_Pics/NL_34U.jpg,34,near,left,up,down,1,12,0,12,0,0,14,14,3,down,1,0.5356735999230295,01,2023-10-30_14h36.57.950,LDD2,2022.2.4,59.94995376043702,
LDD2_Pics/FL_18D.jpg,18,far,left,down,down,1,12,0,12,0,0,15,15,30,down,1,0.6858385000377893,01,2023-10-30_14h36.57.950,LDD2,2022.2.4,59.94995376043702,
LDD2_Pics/NR_18D.jpg,18,near,right,down,down,1,12,0,12,0,0,16,16,18,down,1,0.6858739000745118,01,2023-10-30_14h36.57.950,LDD2,2022.2.4,59.94995376043702,
LDD2_Pics/NL_22D.jpg,22,near,left,down,down,1,12,0,12,0,0,17,17,7,down,1,0.5344032000284642,01,2023-10-30_14h36.57.950,LDD2,2022.2.4,59.94995376043702,
LDD2_Pics/FR_22U.jpg,22,far,right,up,up,1,12,0,12,0,0,18,18,37,up,1,0.7965327999554574,01,2023-10-30_14h36.57.950,LDD2,2022.2.4,59.94995376043702,
LDD2_Pics/NR_42U.jpg,42,near,right,up,down,1,12,0,12,0,0,19,19,17,down,1,0.5688543000724167,01,2023-10-30_14h36.57.950,LDD2,2022.2.4,59.94995376043702,
LDD2_Pics/NL_42U.jpg,42,near,left,up,down,1,12,0,12,0,0,20,20,5,down,1,0.5417525998782367,01,2023-10-30_14h36.57.950,LDD2,2022.2.4,59.94995376043702,
LDD2_Pics/FL_18U.jpg,18,far,left,up,up,1,12,0,12,0,0,21,21,24,up,1,0.8047090000472963,01,2023-10-30_14h36.57.950,LDD2,2022.2.4,59.94995376043702,
LDD2_Pics/NL_34D.jpg,34,near,left,down,up,1,12,0,12,0,0,22,22,9,up,1,0.7280753999948502,01,2023-10-30_14h36.57.950,LDD2,2022.2.4,59.94995376043702,
LDD2_Pics/NR_18U.jpg,18,near,right,up,up,1,12,0,12,0,0,23,23,12,up,1,0.6954556999262422,01,2023-10-30_14h36.57.950,LDD2,2022.2.4,59.94995376043702,
LDD2_Pics/NL_22U.jpg,22,near,left,up,up,1,12,0,12,0,0,24,24,1,up,1,0.5437137000262737,01,2023-10-30_14h36.57.950,LDD2,2022.2.4,59.94995376043702,
LDD2_Pics/FL_22U.jpg,22,far,left,up,up,1,12,0,12,0,0,25,25,25,up,1,0.5743222001474351,01,2023-10-30_14h36.57.950,LDD2,2022.2.4,59.94995376043702,
LDD2_Pics/FR_42U.jpg,42,far,right,up,down,1,12,0,12,0,0,26,26,41,down,1,0.6668912000022829,01,2023-10-30_14h36.57.950,LDD2,2022.2.4,59.94995376043702,
LDD2_Pics/FR_26D.jpg,26,far,right,down,down,1,12,0,12,0,0,27,27,44,down,1,0.5015984999481589,01,2023-10-30_14h36.57.950,LDD2,2022.2.4,59.94995376043702,
LDD2_Pics/NR_42D.jpg,42,near,right,down,up,1,12,0,12,0,0,28,28,23,up,1,0.6526200000662357,01,2023-10-30_14h36.57.950,LDD2,2022.2.4,59.94995376043702,
LDD2_Pics/NL_18U.jpg,18,near,left,up,up,1,12,0,12,0,0,29,29,0,up,1,0.5184591000434011,01,2023-10-30_14h36.57.950,LDD2,2022.2.4,59.94995376043702,
LDD2_Pics/FR_42D.jpg,42,far,right,down,up,1,12,0,12,0,0,30,30,47,up,1,0.4700530001427978,01,2023-10-30_14h36.57.950,LDD2,2022.2.4,59.94995376043702,
LDD2_Pics/FR_38D.jpg,38,far,right,down,up,1,12,0,12,0,0,31,31,46,up,1,0.5987088999245316,01,2023-10-30_14h36.57.950,LDD2,2022.2.4,59.94995376043702,
LDD2_Pics/NR_22D.jpg,22,near,right,down,down,1,12,0,12,0,0,32,32,19,down,1,0.7075953998137265,01,2023-10-30_14h36.57.950,LDD2,2022.2.4,59.94995376043702,
LDD2_Pics/FL_38U.jpg,38,far,left,up,down,1,12,0,12,0,0,33,33,28,down,1,0.5705462000332773,01,2023-10-30_14h36.57.950,LDD2,2022.2.4,59.94995376043702,
LDD2_Pics/FL_34D.jpg,34,far,left,down,up,1,12,0,12,0,0,34,34,33,up,1,0.6560806999914348,01,2023-10-30_14h36.57.950,LDD2,2022.2.4,59.94995376043702,
LDD2_Pics/FR_34D.jpg,34,far,right,down,up,1,12,0,12,0,0,35,35,45,up,1,0.7700199999380857,01,2023-10-30_14h36.57.950,LDD2,2022.2.4,59.94995376043702,
LDD2_Pics/FL_26U.jpg,26,far,left,up,up,1,12,0,12,0,0,36,36,26,up,1,0.5909784000832587,01,2023-10-30_14h36.57.950,LDD2,2022.2.4,59.94995376043702,
LDD2_Pics/FL_34U.jpg,34,far,left,up,down,1,12,0,12,0,0,37,37,27,down,1,0.7303559000138193,01,2023-10-30_14h36.57.950,LDD2,2022.2.4,59.94995376043702,
LDD2_Pics/FR_22D.jpg,22,far,right,down,down,1,12,0,12,0,0,38,38,43,down,1,0.6097649000585079,01,2023-10-30_14h36.57.950,LDD2,2022.2.4,59.94995376043702,
LDD2_Pics/FR_38U.jpg,38,far,right,up,down,1,12,0,12,0,0,39,39,40,down,1,0.5498818999622017,01,2023-10-30_14h36.57.950,LDD2,2022.2.4,59.94995376043702,
LDD2_Pics/NL_38D.jpg,38,near,left,down,up,1,12,0,12,0,0,40,40,10,up,1,0.7238437000196427,01,2023-10-30_14h36.57.950,LDD2,2022.2.4,59.94995376043702,
LDD2_Pics/FR_18D.jpg,18,far,right,down,down,1,12,0,12,0,0,41,41,42,down,1,0.6749316998757422,01,2023-10-30_14h36.57.950,LDD2,2022.2.4,59.94995376043702,
LDD2_Pics/FR_26U.jpg,26,far,right,up,up,1,12,0,12,0,0,42,42,38,up,1,0.8117260001599789,01,2023-10-30_14h36.57.950,LDD2,2022.2.4,59.94995376043702,
LDD2_Pics/NL_42D.jpg,42,near,left,down,up,1,12,0,12,0,0,43,43,11,up,1,0.687748699914664,01,2023-10-30_14h36.57.950,LDD2,2022.2.4,59.94995376043702,
LDD2_Pics/FL_42U.jpg,42,far,left,up,down,1,12,0,12,0,0,44,44,29,down,1,0.6082621000241488,01,2023-10-30_14h36.57.950,LDD2,2022.2.4,59.94995376043702,
LDD2_Pics/NL_26D.jpg,26,near,left,down,down,1,12,0,12,0,0,45,45,8,down,1,0.5643261999357492,01,2023-10-30_14h36.57.950,LDD2,2022.2.4,59.94995376043702,
LDD2_Pics/FR_18U.jpg,18,far,right,up,up,1,12,0,12,0,0,46,46,36,up,1,0.6578365999739617,01,2023-10-30_14h36.57.950,LDD2,2022.2.4,59.94995376043702,
LDD2_Pics/FL_42D.jpg,42,far,left,down,up,1,12,0,12,0,0,47,47,35,up,1,0.5955279001500458,01,2023-10-30_14h36.57.950,LDD2,2022.2.4,59.94995376043702,
LDD2_Pics/NL_34U.jpg,34,near,left,up,down,1,13,0,13,0,0,0,0,3,down,1,1.299828500021249,01,2023-10-30_14h36.57.950,LDD2,2022.2.4,59.94995376043702,
LDD2_Pics/NR_18D.jpg,18,near,right,down,down,1,13,0,13,0,0,1,1,18,down,1,0.6052637998946011,01,2023-10-30_14h36.57.950,LDD2,2022.2.4,59.94995376043702,
LDD2_Pics/NR_42U.jpg,42,near,right,up,down,1,13,0,13,0,0,2,2,17,down,1,0.4728885998483747,01,2023-10-30_14h36.57.950,LDD2,2022.2.4,59.94995376043702,
LDD2_Pics/NL_38U.jpg,38,near,left,up,down,1,13,0,13,0,0,3,3,4,down,1,0.5609951000660658,01,2023-10-30_14h36.57.950,LDD2,2022.2.4,59.94995376043702,
LDD2_Pics/NL_22U.jpg,22,near,left,up,up,1,13,0,13,0,0,4,4,1,down,0,0.44675300014205277,01,2023-10-30_14h36.57.950,LDD2,2022.2.4,59.94995376043702,
LDD2_Pics/NR_34U.jpg,34,near,right,up,down,1,13,0,13,0,0,5,5,15,down,1,1.0410102000460029,01,2023-10-30_14h36.57.950,LDD2,2022.2.4,59.94995376043702,
LDD2_Pics/NL_18U.jpg,18,near,left,up,up,1,13,0,13,0,0,6,6,0,up,1,0.8516715997830033,01,2023-10-30_14h36.57.950,LDD2,2022.2.4,59.94995376043702,
LDD2_Pics/FL_18U.jpg,18,far,left,up,up,1,13,0,13,0,0,7,7,24,up,1,0.564883999992162,01,2023-10-30_14h36.57.950,LDD2,2022.2.4,59.94995376043702,
LDD2_Pics/NL_18D.jpg,18,near,left,down,down,1,13,0,13,0,0,8,8,6,down,1,1.1145981000736356,01,2023-10-30_14h36.57.950,LDD2,2022.2.4,59.94995376043702,
LDD2_Pics/NR_42D.jpg,42,near,right,down,up,1,13,0,13,0,0,9,9,23,up,1,0.7382306000217795,01,2023-10-30_14h36.57.950,LDD2,2022.2.4,59.94995376043702,
LDD2_Pics/FL_22U.jpg,22,far,left,up,up,1,13,0,13,0,0,10,10,25,up,1,0.7200358000118285,01,2023-10-30_14h36.57.950,LDD2,2022.2.4,59.94995376043702,
LDD2_Pics/FL_26U.jpg,26,far,left,up,up,1,13,0,13,0,0,11,11,26,up,1,0.759913899935782,01,2023-10-30_14h36.57.950,LDD2,2022.2.4,59.94995376043702,
LDD2_Pics/FR_26D.jpg,26,far,right,down,down,1,13,0,13,0,0,12,12,44,down,1,0.8365980999078602,01,2023-10-30_14h36.57.950,LDD2,2022.2.4,59.94995376043702,
LDD2_Pics/FR_18D.jpg,18,far,right,down,down,1,13,0,13,0,0,13,13,42,down,1,0.6150442999787629,01,2023-10-30_14h36.57.950,LDD2,2022.2.4,59.94995376043702,
LDD2_Pics/FL_34D.jpg,34,far,left,down,up,1,13,0,13,0,0,14,14,33,up,1,1.0263783000409603,01,2023-10-30_14h36.57.950,LDD2,2022.2.4,59.94995376043702,
LDD2_Pics/FR_18U.jpg,18,far,right,up,up,1,13,0,13,0,0,15,15,36,up,1,0.7180058998055756,01,2023-10-30_14h36.57.950,LDD2,2022.2.4,59.94995376043702,
LDD2_Pics/FL_34U.jpg,34,far,left,up,down,1,13,0,13,0,0,16,16,27,down,1,0.6764773998875171,01,2023-10-30_14h36.57.950,LDD2,2022.2.4,59.94995376043702,
LDD2_Pics/FR_34D.jpg,34,far,right,down,up,1,13,0,13,0,0,17,17,45,down,0,1.3575846999883652,01,2023-10-30_14h36.57.950,LDD2,2022.2.4,59.94995376043702,
LDD2_Pics/NL_22D.jpg,22,near,left,down,down,1,13,0,13,0,0,18,18,7,down,1,0.7860105000436306,01,2023-10-30_14h36.57.950,LDD2,2022.2.4,59.94995376043702,
LDD2_Pics/FR_42D.jpg,42,far,right,down,up,1,13,0,13,0,0,19,19,47,up,1,0.7346923998557031,01,2023-10-30_14h36.57.950,LDD2,2022.2.4,59.94995376043702,
LDD2_Pics/NR_34D.jpg,34,near,right,down,up,1,13,0,13,0,0,20,20,21,up,1,0.9496045999694616,01,2023-10-30_14h36.57.950,LDD2,2022.2.4,59.94995376043702,
LDD2_Pics/NL_38D.jpg,38,near,left,down,up,1,13,0,13,0,0,21,21,10,up,1,0.8989828999619931,01,2023-10-30_14h36.57.950,LDD2,2022.2.4,59.94995376043702,
LDD2_Pics/FR_42U.jpg,42,far,right,up,down,1,13,0,13,0,0,22,22,41,down,1,0.7230678999330848,01,2023-10-30_14h36.57.950,LDD2,2022.2.4,59.94995376043702,
LDD2_Pics/NR_22D.jpg,22,near,right,down,down,1,13,0,13,0,0,23,23,19,down,1,0.7221560999751091,01,2023-10-30_14h36.57.950,LDD2,2022.2.4,59.94995376043702,
LDD2_Pics/NL_26U.jpg,26,near,left,up,up,1,13,0,13,0,0,24,24,2,up,1,0.9771680999547243,01,2023-10-30_14h36.57.950,LDD2,2022.2.4,59.94995376043702,
LDD2_Pics/FR_26U.jpg,26,far,right,up,up,1,13,0,13,0,0,25,25,38,up,1,0.7581474001053721,01,2023-10-30_14h36.57.950,LDD2,2022.2.4,59.94995376043702,
LDD2_Pics/FL_18D.jpg,18,far,left,down,down,1,13,0,13,0,0,26,26,30,down,1,0.6834879000671208,01,2023-10-30_14h36.57.950,LDD2,2022.2.4,59.94995376043702,
LDD2_Pics/FL_42D.jpg,42,far,left,down,up,1,13,0,13,0,0,27,27,35,up,1,0.7886711000464857,01,2023-10-30_14h36.57.950,LDD2,2022.2.4,59.94995376043702,
LDD2_Pics/NR_38D.jpg,38,near,right,down,up,1,13,0,13,0,0,28,28,22,up,1,1.017067699925974,01,2023-10-30_14h36.57.950,LDD2,2022.2.4,59.94995376043702,
LDD2_Pics/NR_22U.jpg,22,near,right,up,up,1,13,0,13,0,0,29,29,13,up,1,0.6443735000211746,01,2023-10-30_14h36.57.950,LDD2,2022.2.4,59.94995376043702,
LDD2_Pics/FL_22D.jpg,22,far,left,down,down,1,13,0,13,0,0,30,30,31,down,1,0.7517993999645114,01,2023-10-30_14h36.57.950,LDD2,2022.2.4,59.94995376043702,
LDD2_Pics/NR_26U.jpg,26,near,right,up,up,1,13,0,13,0,0,31,31,14,up,1,1.0855436001438648,01,2023-10-30_14h36.57.950,LDD2,2022.2.4,59.94995376043702,
LDD2_Pics/FR_38U.jpg,38,far,right,up,down,1,13,0,13,0,0,32,32,40,down,1,0.6760635999962687,01,2023-10-30_14h36.57.950,LDD2,2022.2.4,59.94995376043702,
LDD2_Pics/FR_38D.jpg,38,far,right,down,up,1,13,0,13,0,0,33,33,46,up,1,0.6048710001632571,01,2023-10-30_14h36.57.950,LDD2,2022.2.4,59.94995376043702,
LDD2_Pics/NL_34D.jpg,34,near,left,down,up,1,13,0,13,0,0,34,34,9,up,1,0.6011340001132339,01,2023-10-30_14h36.57.950,LDD2,2022.2.4,59.94995376043702,
LDD2_Pics/NL_42D.jpg,42,near,left,down,up,1,13,0,13,0,0,35,35,11,up,1,0.5646283000241965,01,2023-10-30_14h36.57.950,LDD2,2022.2.4,59.94995376043702,
LDD2_Pics/FR_22D.jpg,22,far,right,down,down,1,13,0,13,0,0,36,36,43,down,1,0.8189069000072777,01,2023-10-30_14h36.57.950,LDD2,2022.2.4,59.94995376043702,
LDD2_Pics/FL_38D.jpg,38,far,left,down,up,1,13,0,13,0,0,37,37,34,up,1,0.6052969000302255,01,2023-10-30_14h36.57.950,LDD2,2022.2.4,59.94995376043702,
LDD2_Pics/NR_18U.jpg,18,near,right,up,up,1,13,0,13,0,0,38,38,12,up,1,0.7134205000475049,01,2023-10-30_14h36.57.950,LDD2,2022.2.4,59.94995376043702,
LDD2_Pics/FR_34U.jpg,34,far,right,up,down,1,13,0,13,0,0,39,39,39,down,1,0.9621731999795884,01,2023-10-30_14h36.57.950,LDD2,2022.2.4,59.94995376043702,
LDD2_Pics/NL_26D.jpg,26,near,left,down,down,1,13,0,13,0,0,40,40,8,down,1,1.0784693001769483,01,2023-10-30_14h36.57.950,LDD2,2022.2.4,59.94995376043702,
LDD2_Pics/FR_22U.jpg,22,far,right,up,up,1,13,0,13,0,0,41,41,37,up,1,0.6469672000966966,01,2023-10-30_14h36.57.950,LDD2,2022.2.4,59.94995376043702,
LDD2_Pics/FL_42U.jpg,42,far,left,up,down,1,13,0,13,0,0,42,42,29,down,1,0.6733254999853671,01,2023-10-30_14h36.57.950,LDD2,2022.2.4,59.94995376043702,
LDD2_Pics/NR_38U.jpg,38,near,right,up,down,1,13,0,13,0,0,43,43,16,down,1,0.6423287000507116,01,2023-10-30_14h36.57.950,LDD2,2022.2.4,59.94995376043702,
LDD2_Pics/FL_26D.jpg,26,far,left,down,down,1,13,0,13,0,0,44,44,32,down,1,0.6765168001875281,01,2023-10-30_14h36.57.950,LDD2,2022.2.4,59.94995376043702,
LDD2_Pics/FL_38U.jpg,38,far,left,up,down,1,13,0,13,0,0,45,45,28,down,1,0.5660852999426425,01,2023-10-30_14h36.57.950,LDD2,2022.2.4,59.94995376043702,
LDD2_Pics/NR_26D.jpg,26,near,right,down,down,1,13,0,13,0,0,46,46,20,down,1,0.5479617000091821,01,2023-10-30_14h36.57.950,LDD2,2022.2.4,59.94995376043702,
LDD2_Pics/NL_42U.jpg,42,near,left,up,down,1,13,0,13,0,0,47,47,5,down,1,0.7144532999955118,01,2023-10-30_14h36.57.950,LDD2,2022.2.4,59.94995376043702,
